sep=,
DeviceTag:,LF
FirmwareVersion:,3.0.0
AppVersion:,2023.6.0
StartTime: ,2025-02-11_12:17:11_000 EST
© Movella Technologies B. V. 2005-2025

PacketCounter,SampleTimeFine,Quat_W,Quat_X,Quat_Y,Quat_Z,dq_W,dq_X,dq_Y,dq_Z,dv[1],dv[2],dv[3],Acc_X,Acc_Y,Acc_Z,Gyr_X,Gyr_Y,Gyr_Z,Mag_X,Mag_Y,Mag_Z,Status
0,416361298,0.267395,0.277400,0.104256,0.916886,0.00000000000000,0.00000000000000,0.00000000000000,0.00000000000000,0.00000000000000,0.00000000000000,0.00000000000000,0.00000000000000,0.00000000000000,0.00000000000000,0.00000000000000,0.00000000000000,0.00000000000000,-0.87744140625000,-0.70849609375000,-0.62500000000000,0
1,416369631,0.267391,0.277424,0.104209,0.916885,1.00000000000000,0.00008300133049,-0.00007186830044,-0.00004160404205,0.03903239965439,0.02914494276047,0.07096123695374,4.68407487869263,3.49753284454346,8.51568889617920,1.14139604568481,-0.98829954862595,-0.57211953401566,-0.87548828125000,-0.70605468750000,-0.62109375000000,0
2,416377964,0.267386,0.277440,0.104160,0.916888,1.00000000000000,0.00007847603410,-0.00006519630551,-0.00003853626549,0.03896528482437,0.02898943424225,0.07095438241959,4.67602109909058,3.47887110710144,8.51486682891846,1.07916605472565,-0.89654940366745,-0.52993291616440,-0.87744140625000,-0.70556640625000,-0.62011718750000,0
3,416386297,0.267379,0.277453,0.104114,0.916891,1.00000000000000,0.00008068606257,-0.00005986075848,-0.00003959517926,0.03891450166702,0.02878463268280,0.07075542211533,4.66992664337158,3.45429372787476,8.49098968505859,1.10955739021301,-0.82317745685577,-0.54449450969696,-0.87548828125000,-0.70898437500000,-0.62207031250000,0
4,416394630,0.267371,0.277465,0.104083,0.916893,1.00000000000000,0.00009479373693,-0.00005543325096,-0.00004244502634,0.03883689641953,0.02883982658386,0.07099294662476,4.66061353683472,3.46091747283936,8.51949405670166,1.30355954170227,-0.76229238510132,-0.58368432521820,-0.87646484375000,-0.70800781250000,-0.62011718750000,0
5,416402963,0.267368,0.277477,0.104070,0.916892,1.00000000000000,0.00011119339615,-0.00005205534399,-0.00005253590643,0.03880679607391,0.02859026193619,0.07095277309418,4.65744113922119,3.43295979499817,8.51363182067871,1.52908015251160,-0.71584099531174,-0.72244942188263,-0.87841796875000,-0.70751953125000,-0.62402343750000,0
6,416411296,0.267372,0.277498,0.104070,0.916884,1.00000000000000,0.00012191105634,-0.00005960464478,-0.00006329827011,0.03885209560394,0.02895796298981,0.07074993848801,4.66281795501709,3.47686290740967,8.48939990997314,1.67646431922913,-0.81965547800064,-0.87044847011566,-0.87792968750000,-0.70751953125000,-0.62353515625000,0
7,416419629,0.267373,0.277504,0.104055,0.916884,1.00000000000000,0.00010608509183,-0.00004758406430,-0.00005757156760,0.03898137807846,0.02926284074783,0.07074326276779,4.67830944061279,3.51375246047974,8.48847675323486,1.45883333683014,-0.65435403585434,-0.79169762134552,-0.87451171875000,-0.70556640625000,-0.62158203125000,0
8,416427962,0.267377,0.277512,0.104047,0.916881,1.00000000000000,0.00011228211224,-0.00004840921611,-0.00006092805415,0.03883773088455,0.02907449007034,0.07064235210419,4.66102933883667,3.49105167388916,8.47643470764160,1.54405164718628,-0.66570115089417,-0.83785438537598,-0.87939453125000,-0.70654296875000,-0.62207031250000,0
9,416436295,0.267376,0.277520,0.104019,0.916882,1.00000000000000,0.00009482074529,-0.00005236081779,-0.00005026347935,0.03895473480225,0.02924799919128,0.07084619998932,4.67475461959839,3.50990009307861,8.50188350677490,1.30393099784851,-0.72004175186157,-0.69120007753372,-0.87597656250000,-0.70996093750000,-0.62402343750000,0
10,416444628,0.267364,0.277522,0.103979,0.916890,1.00000000000000,0.00008433405310,-0.00004664063454,-0.00003622286022,0.03896820545197,0.02907669544220,0.07070010900497,4.67637157440186,3.48934268951416,8.48435211181641,1.15972292423248,-0.64138048887253,-0.49812003970146,-0.87597656250000,-0.70605468750000,-0.62109375000000,0
11,416452961,0.267355,0.277524,0.103952,0.916895,1.00000000000000,0.00009615998715,-0.00004442781210,-0.00004265457392,0.03902596235275,0.02899432182312,0.07062292098999,4.68330240249634,3.47945690155029,8.47508811950684,1.32234764099121,-0.61095070838928,-0.58656597137451,-0.87304687500000,-0.71044921875000,-0.62353515625000,0
12,416461294,0.267347,0.277514,0.103929,0.916902,1.00000000000000,0.00009535904974,-0.00003218837082,-0.00004576146603,0.03892832994461,0.02931457757950,0.07060098648071,4.67158603668213,3.51788973808289,8.47245693206787,1.31133341789246,-0.44263955950737,-0.62929058074951,-0.87451171875000,-0.70751953125000,-0.62207031250000,0
13,416469627,0.267340,0.277506,0.103885,0.916912,1.00000000000000,0.00007641036063,-0.00003904476762,-0.00003949739039,0.03903681039810,0.02914136648178,0.07069724798203,4.68460416793823,3.49710369110107,8.48400878906250,1.05076003074646,-0.53692561388016,-0.54314988851547,-0.87207031250000,-0.70507812500000,-0.62011718750000,0
14,416477960,0.267329,0.277493,0.103842,0.916924,1.00000000000000,0.00007691513747,-0.00003280118108,-0.00003653392196,0.03909397125244,0.02891421318054,0.07084232568741,4.69146347045898,3.46984362602234,8.50141716003418,1.05770146846771,-0.45106670260429,-0.50239759683609,-0.87402343750000,-0.70898437500000,-0.62353515625000,0
15,416486293,0.267331,0.277479,0.103810,0.916931,1.00000000000000,0.00008435826749,-0.00003161653876,-0.00005259923637,0.03904455900192,0.02871924638748,0.07120609283447,4.68553447723389,3.44644737243652,8.54507255554199,1.16005587577820,-0.43477600812912,-0.72332030534744,-0.87841796875000,-0.70654296875000,-0.62207031250000,0
16,416494626,0.267338,0.277468,0.103797,0.916934,1.00000000000000,0.00010020378977,-0.00003144890070,-0.00006308965385,0.03868675231934,0.02863907814026,0.07093101739883,4.64269638061523,3.43910169601440,8.51108837127686,1.37795615196228,-0.43247076869011,-0.86757981777191,-0.87744140625000,-0.70605468750000,-0.61962890625000,0
17,416502959,0.267348,0.277472,0.103809,0.916928,1.00000000000000,0.00012855324894,-0.00004011765122,-0.00007446110249,0.03892391920090,0.02880871295929,0.07097768783569,4.67116260528564,3.45899939537048,8.51686763763428,1.76780474185944,-0.55167937278748,-1.02395462989807,-0.87695312500000,-0.70410156250000,-0.62548828125000,0
18,416511292,0.267354,0.277465,0.103810,0.916929,1.00000000000000,0.00011513568461,-0.00003173667938,-0.00006569642574,0.03911060094833,0.02917653322220,0.07098668813705,4.69352436065674,3.50339198112488,8.51785659790039,1.58329284191132,-0.43642818927765,-0.90342688560486,-0.87500000000000,-0.70751953125000,-0.62451171875000,0
19,416519625,0.267352,0.277462,0.103801,0.916931,1.00000000000000,0.00010985136032,-0.00003627594560,-0.00005594175309,0.03881686925888,0.02895736694336,0.07088971138000,4.65841627120972,3.47717952728271,8.50611114501953,1.51062500476837,-0.49885001778603,-0.76928514242172,-0.87646484375000,-0.70458984375000,-0.62207031250000,0
20,416527958,0.267357,0.277465,0.103808,0.916929,1.00000000000000,0.00012285169214,-0.00003979727626,-0.00006652064621,0.03900581598282,0.02885383367538,0.07073241472244,4.68103694915771,3.46451115608215,8.48736476898193,1.68939960002899,-0.54727363586426,-0.91476118564606,-0.87841796875000,-0.70410156250000,-0.62207031250000,0
21,416536291,0.267368,0.277462,0.103804,0.916926,1.00000000000000,0.00011189375073,-0.00003803893924,-0.00007106550038,0.03916376829147,0.02887272834778,0.07084548473358,4.69996070861816,3.46687984466553,8.50090980529785,1.53871107101440,-0.52309387922287,-0.97725987434387,-0.87451171875000,-0.70751953125000,-0.62158203125000,0
22,416544624,0.267378,0.277460,0.103802,0.916925,1.00000000000000,0.00011187139899,-0.00003775209188,-0.00006868131459,0.03921967744827,0.02847748994827,0.07062053680420,4.70668506622314,3.41946578025818,8.47390842437744,1.53840363025665,-0.51914924383163,-0.94447356462479,-0.87109375000000,-0.70898437500000,-0.62060546875000,0
23,416552957,0.267396,0.277463,0.103833,0.916915,1.00000000000000,0.00014424230903,-0.00003679655492,-0.00008802674711,0.03901714086533,0.02868050336838,0.07088434696198,4.68225336074829,3.44343090057373,8.50579357147217,1.98355352878571,-0.50600916147232,-1.21050322055817,-0.87500000000000,-0.70703125000000,-0.62158203125000,0
24,416561290,0.267421,0.277475,0.103855,0.916901,1.00000000000000,0.00013562943786,-0.00004986487329,-0.00009083189070,0.03902727365494,0.02890646457672,0.07070738077164,4.68357038497925,3.47052741050720,8.48450565338135,1.86511313915253,-0.68571865558624,-1.24907815456390,-0.87597656250000,-0.71044921875000,-0.62060546875000,0
25,416569623,0.267440,0.277484,0.103863,0.916892,1.00000000000000,0.00012399163097,-0.00004851631820,-0.00008201226592,0.03899329900742,0.02882349491119,0.07061892747879,4.67953824996948,3.46070575714111,8.47381019592285,1.70507550239563,-0.66717398166656,-1.12779474258423,-0.87597656250000,-0.70556640625000,-0.62402343750000,0
26,416577956,0.267460,0.277489,0.103882,0.916883,1.00000000000000,0.00013140123338,-0.00004196353257,-0.00008534453809,0.03897899389267,0.02880394458771,0.07065033912659,4.67773437500000,3.45832490921021,8.47764110565186,1.80696904659271,-0.57706302404404,-1.17361855506897,-0.87353515625000,-0.70996093750000,-0.62353515625000,0
27,416586289,0.267488,0.277496,0.103904,0.916870,1.00000000000000,0.00013444665819,-0.00004413723946,-0.00009532831609,0.03912013769150,0.02923929691315,0.07081872224808,4.69464540481567,3.51048350334167,8.49789047241211,1.84884834289551,-0.60695499181747,-1.31091094017029,-0.87597656250000,-0.70751953125000,-0.61962890625000,0
28,416594622,0.267514,0.277495,0.103901,0.916863,1.00000000000000,0.00010806880891,-0.00004193466157,-0.00008550193161,0.03902649879456,0.02920085191727,0.07081943750381,4.68344783782959,3.50613665580750,8.49784564971924,1.48611235618591,-0.57666617631912,-1.17578315734863,-0.87646484375000,-0.70703125000000,-0.62060546875000,0
29,416602955,0.267550,0.277493,0.103893,0.916854,1.00000000000000,0.00010122545063,-0.00004403572530,-0.00009287800640,0.03883618116379,0.02900105714798,0.07062888145447,4.66059923171997,3.48211431503296,8.47500610351562,1.39200556278229,-0.60555893182755,-1.27721536159515,-0.87890625000000,-0.70458984375000,-0.62207031250000,0
30,416611288,0.267586,0.277488,0.103872,0.916847,1.00000000000000,0.00008784886450,-0.00004530325532,-0.00008966028690,0.03887408971786,0.02900773286819,0.07105821371078,4.66520118713379,3.48302054405212,8.52645969390869,1.20805704593658,-0.62298947572708,-1.23296701908112,-0.87792968750000,-0.70605468750000,-0.62011718750000,0
31,416619621,0.267615,0.277490,0.103856,0.916840,1.00000000000000,0.00009667593986,-0.00004828162491,-0.00008414126933,0.03894323110580,0.02879375219345,0.07082527875900,4.67356395721436,3.45731878280640,8.49848365783691,1.32944273948669,-0.66394656896591,-1.15707170963287,-0.87792968750000,-0.70654296875000,-0.62207031250000,0
32,416627954,0.267642,0.277489,0.103858,0.916832,1.00000000000000,0.00011244136840,-0.00004143640399,-0.00008811056614,0.03910082578659,0.02849298715591,0.07101327180862,4.69235658645630,3.42114305496216,8.52115249633789,1.54624164104462,-0.56981420516968,-1.21165561676025,-0.87646484375000,-0.70361328125000,-0.62158203125000,0
33,416636287,0.267674,0.277490,0.103874,0.916821,1.00000000000000,0.00012638233602,-0.00004146620631,-0.00009744055569,0.03888511657715,0.02832299470901,0.07074433565140,4.66642332077026,3.40056967735291,8.48897647857666,1.73795139789581,-0.57022404670715,-1.33995735645294,-0.87548828125000,-0.70654296875000,-0.62109375000000,0
34,416644620,0.267719,0.277492,0.103910,0.916803,1.00000000000000,0.00014069490135,-0.00003889296204,-0.00011552590877,0.03887820243835,0.02899742126465,0.07062798738480,4.66550827026367,3.48131871223450,8.47511959075928,1.93477106094360,-0.53483802080154,-1.58865880966187,-0.87304687500000,-0.70703125000000,-0.62402343750000,0
35,416652953,0.267757,0.277497,0.103924,0.916789,1.00000000000000,0.00012344587594,-0.00004694983363,-0.00010240450501,0.03899377584457,0.02942276000977,0.07052487134933,4.67947816848755,3.53249835968018,8.46262264251709,1.69757056236267,-0.64563244581223,-1.40821945667267,-0.87646484375000,-0.70556640625000,-0.62109375000000,0
36,416661286,0.267783,0.277505,0.103930,0.916778,1.00000000000000,0.00011870358139,-0.00004871934652,-0.00008705444634,0.03892022371292,0.02941733598709,0.07088184356689,4.67074584960938,3.53197693824768,8.50535964965820,1.63235676288605,-0.66996592283249,-1.19713246822357,-0.87451171875000,-0.70458984375000,-0.62158203125000,0
37,416669619,0.267794,0.277511,0.103919,0.916774,1.00000000000000,0.00010776054114,-0.00004801712930,-0.00006872974336,0.03866034746170,0.02933204174042,0.07063716650009,4.63969039916992,3.52195549011230,8.47583580017090,1.48187327384949,-0.66030943393707,-0.94513982534409,-0.87500000000000,-0.70556640625000,-0.62158203125000,0
38,416677952,0.267812,0.277525,0.103903,0.916767,1.00000000000000,0.00010237935930,-0.00005923397839,-0.00007196702063,0.03866410255432,0.02926051616669,0.07075262069702,4.64026641845703,3.51327276229858,8.48966693878174,1.40787363052368,-0.81455826759338,-0.98965728282928,-0.87597656250000,-0.70507812500000,-0.62304687500000,0
39,416686285,0.267818,0.277537,0.103881,0.916763,1.00000000000000,0.00010054279119,-0.00005644932389,-0.00006021931767,0.03901427984238,0.02884447574615,0.07077926397324,4.68237781524658,3.46347594261169,8.49277210235596,1.38261795043945,-0.77626502513885,-0.82810819149017,-0.87500000000000,-0.70263671875000,-0.61962890625000,0
40,416694618,0.267818,0.277548,0.103867,0.916762,1.00000000000000,0.00010765995830,-0.00005159899592,-0.00005530193448,0.03891915082932,0.02916526794434,0.07080942392349,4.67090606689453,3.50199151039124,8.49640655517578,1.48048996925354,-0.70956546068192,-0.76048660278320,-0.87646484375000,-0.70947265625000,-0.62109375000000,0
41,416702951,0.267816,0.277552,0.103841,0.916764,1.00000000000000,0.00009538605809,-0.00004739221185,-0.00004997011274,0.03881841897964,0.02902698516846,0.07075113058090,4.65839624404907,3.48337721824646,8.49047470092773,1.31170499324799,-0.65171581506729,-0.68716585636139,-0.87548828125000,-0.70410156250000,-0.62207031250000,0
42,416711284,0.267813,0.277554,0.103846,0.916764,1.00000000000000,0.00012387335300,-0.00003839563578,-0.00005872454494,0.03894627094269,0.02875363826752,0.07047587633133,4.67391872406006,3.45251822471619,8.45655059814453,1.70344901084900,-0.52799904346466,-0.80755275487900,-0.87695312500000,-0.70800781250000,-0.62011718750000,0
43,416719617,0.267801,0.277556,0.103866,0.916765,1.00000000000000,0.00014088209718,-0.00003262795508,-0.00005421042442,0.03897404670715,0.02911627292633,0.07064819335938,4.67718172073364,3.49590158462524,8.47731590270996,1.93734538555145,-0.44868451356888,-0.74547666311264,-0.87695312500000,-0.71093750000000,-0.61962890625000,0
44,416727950,0.267769,0.277549,0.103889,0.916773,1.00000000000000,0.00014444720000,-0.00002022646368,-0.00003563798964,0.03882968425751,0.02937632799149,0.07093751430511,4.65980958938599,3.52714443206787,8.51204204559326,1.98637104034424,-0.27814495563507,-0.49007713794708,-0.87744140625000,-0.70556640625000,-0.62255859375000,0
45,416736283,0.267739,0.277553,0.103901,0.916780,1.00000000000000,0.00013781432062,-0.00003242306411,-0.00003436952829,0.03875094652176,0.02927798032761,0.07103568315506,4.65051698684692,3.51537132263184,8.52372932434082,1.89515876770020,-0.44586697220802,-0.47263383865356,-0.87695312500000,-0.70654296875000,-0.62304687500000,0
46,416744616,0.267704,0.277550,0.103903,0.916790,1.00000000000000,0.00012789387256,-0.00002861395478,-0.00002564489841,0.03897827863693,0.02925992012024,0.07062655687332,4.67783498764038,3.51334261894226,8.47455024719238,1.75873732566833,-0.39348587393761,-0.35265678167343,-0.87792968750000,-0.70849609375000,-0.62451171875000,0
47,416752949,0.267667,0.277555,0.103895,0.916801,1.00000000000000,0.00012178253382,-0.00003720633686,-0.00002070330083,0.03882908821106,0.02911549806595,0.07066482305527,4.66011190414429,3.49602103233337,8.47904586791992,1.67469704151154,-0.51164430379868,-0.28470221161842,-0.87695312500000,-0.70751953125000,-0.62402343750000,0
48,416761282,0.267625,0.277558,0.103872,0.916815,1.00000000000000,0.00010727439076,-0.00003921240568,-0.00001136399806,0.03872352838516,0.02926033735275,0.07069242000580,4.64700889587402,3.51138067245483,8.48342895507812,1.47518789768219,-0.53923088312149,-0.15627245604992,-0.87695312500000,-0.70898437500000,-0.62304687500000,0
49,416769615,0.267578,0.277559,0.103831,0.916833,1.00000000000000,0.00009234528989,-0.00003891624510,-0.00000133737922,0.03900581598282,0.02919054031372,0.07092535495758,4.68088483810425,3.50300431251526,8.51138114929199,1.26988971233368,-0.53515821695328,-0.01839102059603,-0.87597656250000,-0.70800781250000,-0.62353515625000,0
50,416777948,0.267544,0.277567,0.103783,0.916846,1.00000000000000,0.00008451193571,-0.00005124974996,-0.00001045409590,0.03882294893265,0.02898854017258,0.07072460651398,4.65893983840942,3.47876381874084,8.48729133605957,1.16216909885406,-0.70476287603378,-0.14375989139080,-0.87500000000000,-0.70800781250000,-0.62353515625000,0
51,416786281,0.267515,0.277577,0.103728,0.916858,1.00000000000000,0.00007704086602,-0.00005466211587,-0.00001442898065,0.03893929719925,0.02867501974106,0.07101005315781,4.67290258407593,3.44113969802856,8.52154636383057,1.05943048000336,-0.75168812274933,-0.19842067360878,-0.87744140625000,-0.70605468750000,-0.61816406250000,0
52,416794614,0.267485,0.277584,0.103696,0.916867,1.00000000000000,0.00009748991579,-0.00004760548472,-0.00002074614167,0.03887104988098,0.02852296829224,0.07066386938095,4.66471242904663,3.42289280891418,8.48000335693359,1.34063625335693,-0.65464866161346,-0.28529137372971,-0.88037109375000,-0.70507812500000,-0.62207031250000,0
53,416802947,0.267455,0.277599,0.103680,0.916874,1.00000000000000,0.00011543184519,-0.00005056522787,-0.00002459809184,0.03899300098419,0.02879112958908,0.07103770971298,4.67997264862061,3.45706033706665,8.52371597290039,1.58736538887024,-0.69534963369370,-0.33826154470444,-0.87939453125000,-0.70410156250000,-0.61962890625000,0
54,416811280,0.267429,0.277612,0.103651,0.916881,1.00000000000000,0.00010076165199,-0.00005246791989,-0.00002465490252,0.03907710313797,0.02895718812943,0.07071554660797,4.68943977355957,3.47500133514404,8.48620414733887,1.38562762737274,-0.72151458263397,-0.33904281258583,-0.87646484375000,-0.70849609375000,-0.62304687500000,0
55,416819613,0.267392,0.277611,0.103648,0.916892,1.00000000000000,0.00012441724539,-0.00003063026816,-0.00002369750291,0.03921109437943,0.02902483940125,0.07080096006393,4.70583105087280,3.48517084121704,8.49544048309326,1.71092832088470,-0.42121326923370,-0.32587707042694,-0.87792968750000,-0.70556640625000,-0.62158203125000,0
56,416827946,0.267342,0.277608,0.103672,0.916904,1.00000000000000,0.00015229918063,-0.00002078060061,-0.00001771282405,0.03897124528885,0.02887934446335,0.07098472118378,4.67688035964966,3.46737742424011,8.51772689819336,2.09434771537781,-0.28576520085335,-0.24357855319977,-0.87841796875000,-0.70361328125000,-0.61962890625000,0
57,416836279,0.267282,0.277609,0.103696,0.916919,1.00000000000000,0.00015528872609,-0.00002128724009,-0.00000771041960,0.03895694017410,0.02916789054871,0.07100856304169,4.67520570755005,3.50193166732788,8.52058982849121,2.13545870780945,-0.29273229837418,-0.10603012144566,-0.87939453125000,-0.70605468750000,-0.62255859375000,0
58,416844612,0.267224,0.277609,0.103708,0.916935,1.00000000000000,0.00014284439385,-0.00002436991781,-0.00000587943941,0.03913301229477,0.02934432029724,0.07083767652512,4.69641304016113,3.52321887016296,8.49998569488525,1.96432995796204,-0.33512383699417,-0.08085133135319,-0.87695312500000,-0.70458984375000,-0.61865234375000,0
59,416852945,0.267165,0.277608,0.103696,0.916954,1.00000000000000,0.00012165587395,-0.00002815574408,0.00000155065209,0.03898268938065,0.02908581495285,0.07084071636200,4.67857742309570,3.49239969253540,8.50016117095947,1.67295527458191,-0.38718473911285,0.02132384851575,-0.87695312500000,-0.70703125000000,-0.62011718750000,0
60,416861278,0.267109,0.277605,0.103683,0.916973,1.00000000000000,0.00011836830527,-0.00002762489021,0.00000045541674,0.03904700279236,0.02889680862427,0.07082545757294,4.68582725524902,3.46775555610657,8.49939441680908,1.62774610519409,-0.37988469004631,0.00626268051565,-0.87695312500000,-0.70312500000000,-0.62207031250000,0
61,416869611,0.267056,0.277600,0.103675,0.916990,1.00000000000000,0.00012280698866,-0.00002505071461,-0.00000572577119,0.03906816244125,0.02893090248108,0.07097679376602,4.68873310089111,3.47387766838074,8.51652526855469,1.68878507614136,-0.34448587894440,-0.07873816043139,-0.87597656250000,-0.70263671875000,-0.62060546875000,0
62,416877944,0.267001,0.277605,0.103648,0.917008,1.00000000000000,0.00010834448040,-0.00003886502236,0.00000269711018,0.03902685642242,0.02876842021942,0.07124763727188,4.68340969085693,3.45234894752502,8.55005931854248,1.48990297317505,-0.53445374965668,0.03708940744400,-0.87597656250000,-0.70361328125000,-0.62060546875000,0
63,416886277,0.266946,0.277601,0.103633,0.917027,1.00000000000000,0.00011662300676,-0.00002708286047,-0.00000134110451,0.03889179229736,0.02865350246429,0.07067239284515,4.66720151901245,3.43855762481689,8.48102569580078,1.60374581813812,-0.37243101000786,-0.01844224892557,-0.87890625000000,-0.70556640625000,-0.62060546875000,0
64,416894610,0.266903,0.277608,0.103632,0.917037,1.00000000000000,0.00012991949916,-0.00003795418888,-0.00001652073115,0.03901338577271,0.02843397855759,0.07099765539169,4.68222093582153,3.41411185264587,8.51906299591064,1.78659272193909,-0.52192842960358,-0.22718545794487,-0.87744140625000,-0.70361328125000,-0.62402343750000,0
65,416902943,0.266868,0.277611,0.103636,0.917046,1.00000000000000,0.00013145245612,-0.00003308523446,-0.00002695713192,0.03911709785461,0.02884787321091,0.07090574502945,4.69453287124634,3.46382617950439,8.50807762145996,1.80767357349396,-0.45497289299965,-0.37070202827454,-0.87988281250000,-0.70654296875000,-0.62011718750000,0
66,416911276,0.266841,0.277608,0.103646,0.917054,1.00000000000000,0.00013262778521,-0.00002784002572,-0.00003588479012,0.03908312320709,0.02888262271881,0.07073253393173,4.69033145904541,3.46801519393921,8.48734760284424,1.82383596897125,-0.38284316658974,-0.49347102642059,-0.87695312500000,-0.70849609375000,-0.62158203125000,0
67,416919609,0.266814,0.277612,0.103653,0.917059,1.00000000000000,0.00013275351375,-0.00003482773900,-0.00003557279706,0.03893440961838,0.02893745899200,0.07074838876724,4.67257070541382,3.47455120086670,8.48922061920166,1.82556509971619,-0.47893500328064,-0.48918071389198,-0.87939453125000,-0.70703125000000,-0.62158203125000,0
68,416927942,0.266783,0.277608,0.103657,0.917069,1.00000000000000,0.00012769829482,-0.00002727471292,-0.00003001652658,0.03905797004700,0.02913177013397,0.07066959142685,4.68735313415527,3.49798321723938,8.47973632812500,1.75604784488678,-0.37506923079491,-0.41277343034744,-0.88037109375000,-0.70361328125000,-0.62109375000000,0
69,416936275,0.266738,0.277597,0.103640,0.917087,1.00000000000000,0.00011102110147,-0.00002208258957,-0.00001170393080,0.03883653879166,0.02952504158020,0.07062554359436,4.66057062149048,3.54314637184143,8.47540378570557,1.52671086788177,-0.30366957187653,-0.16094703972340,-0.87988281250000,-0.70361328125000,-0.62207031250000,0
70,416944608,0.266688,0.277575,0.103582,0.917116,1.00000000000000,0.00006912741810,-0.00001982040703,0.00000778865069,0.03896123170853,0.02943319082260,0.07093995809555,4.67553424835205,3.53212356567383,8.51313400268555,0.95060825347900,-0.27256107330322,0.10710591822863,-0.87744140625000,-0.70556640625000,-0.62207031250000,0
71,416952941,0.266635,0.277552,0.103521,0.917145,1.00000000000000,0.00006815139204,-0.00001912377775,0.00001039635390,0.03881865739822,0.02901089191437,0.07050991058350,4.65842485427856,3.48144602775574,8.46152687072754,0.93718636035919,-0.26298129558563,0.14296583831310,-0.88134765625000,-0.70654296875000,-0.61962890625000,0
72,416961274,0.266578,0.277520,0.103459,0.917178,1.00000000000000,0.00006426405162,-0.00001051090658,0.00001539755613,0.03895545005798,0.02905458211899,0.07053560018539,4.67484045028687,3.48668909072876,8.46461009979248,0.88372957706451,-0.14454114437103,0.21174009144306,-0.88134765625000,-0.70605468750000,-0.62158203125000,0
73,416969607,0.266502,0.277492,0.103392,0.917216,1.00000000000000,0.00006682146341,-0.00001149624586,0.00003453809768,0.03904992341995,0.02910703420639,0.07063227891922,4.68617773056030,3.49298357963562,8.47621154785156,0.91889792680740,-0.15809106826782,0.47495198249817,-0.87939453125000,-0.70849609375000,-0.62011718750000,0
74,416977940,0.266436,0.277457,0.103332,0.917253,1.00000000000000,0.00006838236004,-0.00000427849591,0.00002340506762,0.03887289762497,0.02855378389359,0.07082706689835,4.66493463516235,3.42659044265747,8.49958610534668,0.94036263227463,-0.05883590504527,0.32185569405556,-0.87744140625000,-0.70654296875000,-0.61914062500000,0
75,416986273,0.266389,0.277424,0.103276,0.917283,1.00000000000000,0.00006780680269,-0.00000889785588,0.00000329222530,0.03880012035370,0.02878218889236,0.07076126337051,4.65620040893555,3.45400047302246,8.49169063568115,0.93244785070419,-0.12235920876265,0.04527316614985,-0.87988281250000,-0.70800781250000,-0.62158203125000,0
76,416994606,0.266343,0.277395,0.103235,0.917309,1.00000000000000,0.00008260924369,-0.00001014769077,-0.00000230409205,0.03899937868118,0.02866458892822,0.07108354568481,4.68011236190796,3.43988800048828,8.53036594390869,1.13600420951843,-0.13954634964466,-0.03168481215835,-0.87695312500000,-0.70263671875000,-0.62011718750000,0
77,417002939,0.266309,0.277373,0.103186,0.917331,1.00000000000000,0.00007457938045,-0.00002119503915,-0.00001264177263,0.03888237476349,0.02864003181458,0.07075780630112,4.66607141494751,3.43694114685059,8.49127578735352,1.02558112144470,-0.29146435856819,-0.17384380102158,-0.88183593750000,-0.70556640625000,-0.62353515625000,0
78,417011272,0.266292,0.277354,0.103148,0.917346,1.00000000000000,0.00008134078234,-0.00002528913319,-0.00003134272993,0.03892773389816,0.02864110469818,0.07099103927612,4.67151403427124,3.43706917762756,8.51926422119141,1.11856079101562,-0.34776446223259,-0.43101072311401,-0.87792968750000,-0.70556640625000,-0.62158203125000,0
79,417019605,0.266273,0.277338,0.103101,0.917362,1.00000000000000,0.00007404852659,-0.00002847053111,-0.00002821348608,0.03897529840469,0.02874356508255,0.07083004713058,4.67722272872925,3.44936561584473,8.49994468688965,1.01828110218048,-0.39151361584663,-0.38797882199287,-0.87939453125000,-0.70556640625000,-0.61914062500000,0
80,417027938,0.266263,0.277324,0.103062,0.917373,1.00000000000000,0.00007952656597,-0.00003115646541,-0.00003799796104,0.03905200958252,0.02854418754578,0.07081753015518,4.68642807006836,3.42543935775757,8.49844264984131,1.09361255168915,-0.42844927310944,-0.52253037691116,-0.87939453125000,-0.70214843750000,-0.62207031250000,0
81,417036271,0.266267,0.277315,0.103032,0.917378,1.00000000000000,0.00008770730346,-0.00003654323518,-0.00005511008203,0.03890103101730,0.02892130613327,0.07091134786606,4.66831016540527,3.47069525718689,8.50970172882080,1.20611035823822,-0.50252574682236,-0.75784844160080,-0.88085937500000,-0.70703125000000,-0.62011718750000,0
82,417044604,0.266262,0.277299,0.102996,0.917388,1.00000000000000,0.00008027721196,-0.00002989359200,-0.00004483759403,0.03914916515350,0.02903175354004,0.07072085142136,4.69808721542358,3.48394942283630,8.48684120178223,1.10393512248993,-0.41108283400536,-0.61658585071564,-0.88330078125000,-0.70507812500000,-0.62451171875000,0
83,417052937,0.266252,0.277284,0.102961,0.917400,1.00000000000000,0.00008447375149,-0.00002907589078,-0.00003998912871,0.03903216123581,0.02889424562454,0.07066839933395,4.68404626846313,3.46744799613953,8.48054695129395,1.16164386272430,-0.39983820915222,-0.54991203546524,-0.87841796875000,-0.70166015625000,-0.62402343750000,0
84,417061270,0.266244,0.277272,0.102939,0.917408,1.00000000000000,0.00009522493929,-0.00002964213490,-0.00004539825022,0.03893524408340,0.02909177541733,0.07075315713882,4.67241573333740,3.49115252494812,8.49071788787842,1.30948948860168,-0.40762493014336,-0.62429571151733,-0.88183593750000,-0.70263671875000,-0.62158203125000,0
85,417069603,0.266230,0.277246,0.102904,0.917424,1.00000000000000,0.00008128862828,-0.00001732818782,-0.00003618374467,0.03919172286987,0.02912282943726,0.07100653648376,4.70319461822510,3.49487900733948,8.52112483978271,1.11784374713898,-0.23828923702240,-0.49758216738701,-0.87939453125000,-0.70556640625000,-0.62255859375000,0
86,417077936,0.266229,0.277214,0.102851,0.917440,1.00000000000000,0.00005983468145,-0.00001829490066,-0.00004380010068,0.03882843255997,0.02883344888687,0.07073879241943,4.65959835052490,3.46015214920044,8.48899364471436,0.82281887531281,-0.25158300995827,-0.60231870412827,-0.87890625000000,-0.70410156250000,-0.62353515625000,0
87,417086269,0.266228,0.277180,0.102799,0.917456,1.00000000000000,0.00005952175707,-0.00001512654126,-0.00004438683391,0.03897422552109,0.02888286113739,0.07095068693161,4.67709350585938,3.46608161926270,8.51442337036133,0.81851565837860,-0.20801320672035,-0.61038714647293,-0.88037109375000,-0.70507812500000,-0.62158203125000,0
88,417094602,0.266220,0.277149,0.102744,0.917474,1.00000000000000,0.00005953665823,-0.00001836568117,-0.00003531575203,0.03894424438477,0.02893584966660,0.07071059942245,4.67349576950073,3.47244048118591,8.48561096191406,0.81872057914734,-0.25255635380745,-0.48564589023590,-0.87841796875000,-0.70214843750000,-0.62109375000000,0
89,417102935,0.266207,0.277112,0.102677,0.917497,1.00000000000000,0.00004904624075,-0.00001393631101,-0.00002772361040,0.03904765844345,0.02932393550873,0.07081294059753,4.68590545654297,3.51901221275330,8.49789142608643,0.67446118593216,-0.19164569675922,-0.38124227523804,-0.87890625000000,-0.70019531250000,-0.62158203125000,0
90,417111268,0.266179,0.277077,0.102592,0.917525,1.00000000000000,0.00003494787961,-0.00001770444214,-0.00000719539821,0.03876310586929,0.02903890609741,0.07067877054214,4.65175819396973,3.48480725288391,8.48178958892822,0.48058706521988,-0.24346329271793,-0.09894778579473,-0.88037109375000,-0.70703125000000,-0.62402343750000,0
91,417119601,0.266162,0.277039,0.102496,0.917552,1.00000000000000,0.00002168957144,-0.00001913122833,-0.00001494586468,0.03914970159531,0.02880603075027,0.07075357437134,4.69815158843994,3.45686173439026,8.49076747894287,0.29826495051384,-0.26308378577232,-0.20552861690521,-0.88232421875000,-0.70263671875000,-0.62207031250000,0
92,417127934,0.266138,0.276999,0.102397,0.917582,1.00000000000000,0.00002056267112,-0.00001639872789,-0.00000588595867,0.03920340538025,0.02860164642334,0.07117873430252,4.70459651947021,3.43233489990234,8.54179000854492,0.28276833891869,-0.22550772130489,-0.08094097673893,-0.87939453125000,-0.70312500000000,-0.62597656250000,0
93,417136267,0.266122,0.276964,0.102294,0.917609,1.00000000000000,0.00001615006477,-0.00002406537533,-0.00001444481313,0.03864151239395,0.02787595987320,0.07119446992874,4.63716745376587,3.34524869918823,8.54367828369141,0.22208821773529,-0.33093589544296,-0.19863837957382,-0.87792968750000,-0.70214843750000,-0.62158203125000,0
94,417144600,0.266128,0.276948,0.102235,0.917619,1.00000000000000,0.00005621183664,-0.00003742426634,-0.00004738010466,0.03890883922577,0.02787584066391,0.07118934392929,4.66924715042114,3.34523439407349,8.54306221008301,0.77299916744232,-0.51464122533798,-0.65154927968979,-0.87841796875000,-0.70312500000000,-0.62451171875000,0
95,417152933,0.266143,0.276947,0.102211,0.917617,1.00000000000000,0.00009217951447,-0.00004436634481,-0.00006910599768,0.03895843029022,0.02837073802948,0.07098060846329,4.67547655105591,3.40679144859314,8.51699352264404,1.26761007308960,-0.61010545492172,-0.95031368732452,-0.87841796875000,-0.70312500000000,-0.62402343750000,0
96,417161266,0.266159,0.276948,0.102173,0.917616,1.00000000000000,0.00007848255336,-0.00005105417222,-0.00006369221956,0.03894215822220,0.02861005067825,0.07101267576218,4.67324542999268,3.43334317207336,8.52186107635498,1.07925570011139,-0.70207333564758,-0.87586587667465,-0.87744140625000,-0.70263671875000,-0.62500000000000,0
97,417169599,0.266166,0.276946,0.102129,0.917620,1.00000000000000,0.00007556192577,-0.00004768837243,-0.00005374383181,0.03895258903503,0.02825063467026,0.07104784250259,4.67449760437012,3.39021158218384,8.52608203887939,1.03909254074097,-0.65578842163086,-0.73906028270721,-0.88134765625000,-0.70166015625000,-0.61962890625000,0
98,417177932,0.266174,0.276954,0.102116,0.917617,1.00000000000000,0.00010632071644,-0.00004984252155,-0.00006354041398,0.03907263278961,0.02861177921295,0.07103979587555,4.68924856185913,3.43556356430054,8.52411365509033,1.46207332611084,-0.68541133403778,-0.87377840280533,-0.88037109375000,-0.70312500000000,-0.62695312500000,0
99,417186265,0.266178,0.276964,0.102084,0.917616,1.00000000000000,0.00009073037654,-0.00005592964590,-0.00005494430661,0.03896939754486,0.02879083156586,0.07115989923477,4.67651462554932,3.45503783226013,8.53952884674072,1.24768221378326,-0.76911860704422,-0.75556868314743,-0.87939453125000,-0.70458984375000,-0.62548828125000,0
100,417194598,0.266176,0.276980,0.102047,0.917616,1.00000000000000,0.00008829589933,-0.00006294995546,-0.00004632025957,0.03886830806732,0.02846425771713,0.07102704048157,4.66438341140747,3.41584730148315,8.52358531951904,1.21420443058014,-0.86565864086151,-0.63697475194931,-0.88037109375000,-0.70263671875000,-0.62451171875000,0
101,417202931,0.266172,0.277002,0.102036,0.917612,1.00000000000000,0.00011544581503,-0.00006121955812,-0.00005290471017,0.03901845216751,0.02862870693207,0.07068336009979,4.68290710449219,3.43742179870605,8.48131752014160,1.58755731582642,-0.84186303615570,-0.72752100229263,-0.87890625000000,-0.70214843750000,-0.62255859375000,0
102,417211264,0.266165,0.277017,0.102021,0.917611,1.00000000000000,0.00011040177196,-0.00005489028990,-0.00004749372602,0.03928250074387,0.02872586250305,0.07109838724136,4.71460819244385,3.44923138618469,8.53105545043945,1.51819431781769,-0.75482600927353,-0.65311181545258,-0.88134765625000,-0.70703125000000,-0.62207031250000,0
103,417219597,0.266158,0.277025,0.101998,0.917613,1.00000000000000,0.00010052416474,-0.00005041621625,-0.00004685111344,0.03909701108932,0.02867281436920,0.07120430469513,4.69182872772217,3.44087505340576,8.54485797882080,1.38236188888550,-0.69330048561096,-0.64427483081818,-0.88134765625000,-0.70312500000000,-0.62158203125000,0
104,417227930,0.266157,0.277031,0.101972,0.917614,1.00000000000000,0.00009581912309,-0.00004922598600,-0.00005084089935,0.03925663232803,0.02885413169861,0.07094484567642,4.71098327636719,3.46263360977173,8.51372051239014,1.31766021251678,-0.67693293094635,-0.69914054870605,-0.87890625000000,-0.70507812500000,-0.62597656250000,0
105,417236263,0.266148,0.277039,0.101938,0.917618,1.00000000000000,0.00009139161557,-0.00005226023495,-0.00004007853568,0.03903621435165,0.02847427129745,0.07088273763657,4.68453264236450,3.41704964637756,8.50626945495605,1.25677514076233,-0.71865850687027,-0.55114150047302,-0.87792968750000,-0.70117187500000,-0.62353515625000,0
106,417244596,0.266151,0.277042,0.101912,0.917619,1.00000000000000,0.00009368546307,-0.00004739407450,-0.00005543883890,0.03877609968185,0.02826714515686,0.07082843780518,4.65331792831421,3.39219284057617,8.49975204467773,1.28831899166107,-0.65174132585526,-0.76236921548843,-0.88281250000000,-0.70263671875000,-0.62207031250000,0
107,417252929,0.266160,0.277053,0.101895,0.917615,1.00000000000000,0.00010368786752,-0.00005431752652,-0.00006455276161,0.03901630640030,0.02865630388260,0.07098555564880,4.68254470825195,3.44087100028992,8.51758861541748,1.42586767673492,-0.74694955348969,-0.88769978284836,-0.88134765625000,-0.70312500000000,-0.62255859375000,0
108,417261262,0.266168,0.277057,0.101868,0.917615,1.00000000000000,0.00009182095528,-0.00005012843758,-0.00005898904055,0.03908902406693,0.02859997749329,0.07072520256042,4.69087028503418,3.43213438987732,8.48736286163330,1.26267933845520,-0.68934315443039,-0.81119006872177,-0.87939453125000,-0.70458984375000,-0.62207031250000,0
109,417269595,0.266186,0.277065,0.101848,0.917609,1.00000000000000,0.00009822938591,-0.00005363486707,-0.00007227435708,0.03895586729050,0.02847611904144,0.07083779573441,4.67524147033691,3.41924047470093,8.49989223480225,1.35080492496490,-0.73756188154221,-0.99388337135315,-0.88330078125000,-0.70214843750000,-0.62451171875000,0
110,417277928,0.266205,0.277076,0.101834,0.917602,1.00000000000000,0.00010320916772,-0.00005552638322,-0.00007418822497,0.03906381130219,0.02904635667801,0.07111245393753,4.68817806243896,3.48760509490967,8.53287506103516,1.41928470134735,-0.76357311010361,-1.02020215988159,-0.88134765625000,-0.70312500000000,-0.62353515625000,0
111,417286261,0.266219,0.277090,0.101791,0.917599,1.00000000000000,0.00007937289774,-0.00006448943168,-0.00006024260074,0.03890264034271,0.02894842624664,0.07086974382401,4.66850328445435,3.47394990921021,8.50470924377441,1.09149932861328,-0.88682872056961,-0.82842832803726,-0.88037109375000,-0.70166015625000,-0.62011718750000,0
112,417294594,0.266222,0.277093,0.101744,0.917602,1.00000000000000,0.00007394049317,-0.00005184300244,-0.00004888139665,0.03907310962677,0.02885919809341,0.07075673341751,4.68896055221558,3.46324205398560,8.49114704132080,1.01679551601410,-0.71292108297348,-0.67219442129135,-0.87939453125000,-0.70361328125000,-0.62548828125000,0
113,417302927,0.266224,0.277094,0.101699,0.917606,1.00000000000000,0.00007597263902,-0.00005008839071,-0.00004855729640,0.03917813301086,0.02870392799377,0.07086485624313,4.70156383514404,3.44460868835449,8.50412273406982,1.04474055767059,-0.68879240751266,-0.66773748397827,-0.87646484375000,-0.70312500000000,-0.62255859375000,0
114,417311260,0.266233,0.277085,0.101645,0.917612,1.00000000000000,0.00006258022040,-0.00004364922643,-0.00005201064050,0.03903228044510,0.02868121862411,0.07083982229233,4.68406009674072,3.44188332557678,8.50111770629883,0.86057424545288,-0.60024398565292,-0.71522623300552,-0.87890625000000,-0.70166015625000,-0.62548828125000,0
115,417319593,0.266240,0.277079,0.101592,0.917618,1.00000000000000,0.00006578397006,-0.00004529580474,-0.00005177035928,0.03897500038147,0.02866142988205,0.07089143991470,4.67718696594238,3.43950867652893,8.50731277465820,0.90463083982468,-0.62288701534271,-0.71192204952240,-0.87988281250000,-0.70214843750000,-0.62304687500000,0
116,417327926,0.266258,0.277077,0.101535,0.917620,1.00000000000000,0.00006023515016,-0.00005230121315,-0.00006050989032,0.03914183378220,0.02848362922668,0.07081884145737,4.69720745086670,3.41817212104797,8.49860000610352,0.82832598686218,-0.71922212839127,-0.83210408687592,-0.88183593750000,-0.70507812500000,-0.62353515625000,0
117,417336259,0.266282,0.277074,0.101482,0.917619,1.00000000000000,0.00006186310202,-0.00005175359547,-0.00006778910756,0.03895193338394,0.02838879823685,0.07112336158752,4.67441844940186,3.40679192543030,8.53514385223389,0.85071277618408,-0.71169149875641,-0.93220442533493,-0.88232421875000,-0.70410156250000,-0.62207031250000,0
118,417344592,0.266311,0.277071,0.101437,0.917617,1.00000000000000,0.00006751995534,-0.00005080737174,-0.00007545389235,0.03893619775772,0.02833110094070,0.07103186845779,4.67253017425537,3.39986777305603,8.52416419982910,0.92850327491760,-0.69867950677872,-1.03760707378387,-0.87792968750000,-0.70312500000000,-0.62402343750000,0
119,417352925,0.266351,0.277055,0.101403,0.917614,1.00000000000000,0.00007296632975,-0.00003698654473,-0.00008996017277,0.03901219367981,0.02848452329636,0.07097774744034,4.68165016174316,3.41827917098999,8.51766967773438,1.00339925289154,-0.50862181186676,-1.23709070682526,-0.87695312500000,-0.70117187500000,-0.62646484375000,0
120,417361258,0.266389,0.277045,0.101348,0.917612,1.00000000000000,0.00005354825407,-0.00004743970931,-0.00008098967373,0.03895753622055,0.02867829799652,0.07101267576218,4.67509078979492,3.44153308868408,8.52186107635498,0.73637080192566,-0.65236890316010,-1.11373257637024,-0.88085937500000,-0.70312500000000,-0.62548828125000,0
121,417369591,0.266422,0.277036,0.101280,0.917612,1.00000000000000,0.00004517380148,-0.00005089119077,-0.00007275678217,0.03909772634506,0.02846115827560,0.07053071260452,4.69191455841064,3.41547513008118,8.46402359008789,0.62120926380157,-0.69983208179474,-1.00051760673523,-0.87939453125000,-0.70263671875000,-0.62304687500000,0
122,417377924,0.266459,0.277026,0.101233,0.917610,1.00000000000000,0.00006145145744,-0.00004562176764,-0.00008209422231,0.03900718688965,0.02847003936768,0.07064843177795,4.68104934692383,3.41654109954834,8.47815036773682,0.84505200386047,-0.62736940383911,-1.12892174720764,-0.87841796875000,-0.70507812500000,-0.62353515625000,0
123,417386257,0.266488,0.277009,0.101185,0.917612,1.00000000000000,0.00006186310202,-0.00003731995821,-0.00007529184222,0.03918462991714,0.02819472551346,0.07147818803787,4.70234346389771,3.38350224494934,8.57772541046143,0.85071277618408,-0.51320683956146,-1.03537869453430,-0.88037109375000,-0.70312500000000,-0.62402343750000,0
124,417394590,0.266509,0.277000,0.101165,0.917611,1.00000000000000,0.00009148940444,-0.00003711786121,-0.00007504690439,0.03898441791534,0.02786254882812,0.07087671756744,4.67844200134277,3.34582757949829,8.50461673736572,1.25812005996704,-0.51042765378952,-1.03201043605804,-0.88183593750000,-0.70312500000000,-0.62500000000000,0
125,417402923,0.266530,0.276997,0.101170,0.917605,1.00000000000000,0.00011696852744,-0.00003734882921,-0.00008319038898,0.03914481401443,0.02874135971069,0.07098811864853,4.69760751724243,3.45098066329956,8.51813030242920,1.60849702358246,-0.51360380649567,-1.14399588108063,-0.88232421875000,-0.70214843750000,-0.62451171875000,0
126,417411256,0.266539,0.276978,0.101148,0.917611,1.00000000000000,0.00008948799223,-0.00002611055970,-0.00006193481386,0.03901046514511,0.02887541055679,0.07071119546890,4.68144321441650,3.46518802642822,8.48568344116211,1.23059737682343,-0.35906031727791,-0.85169887542725,-0.88183593750000,-0.69921875000000,-0.62451171875000,0
127,417419589,0.266546,0.276972,0.101126,0.917613,1.00000000000000,0.00009394530207,-0.00003832206130,-0.00006121397018,0.03895497322083,0.02861791849136,0.07090616226196,4.67478275299072,3.43428707122803,8.50907802581787,1.29189217090607,-0.52698719501495,-0.84178608655930,-0.88378906250000,-0.70312500000000,-0.62402343750000,0
128,417427922,0.266541,0.276959,0.101110,0.917620,1.00000000000000,0.00010084174573,-0.00002762395889,-0.00005045626312,0.03912526369095,0.02895087003708,0.07090508937836,4.69521903991699,3.47424316406250,8.50895023345947,1.38672900199890,-0.37987190485001,-0.69385123252869,-0.87792968750000,-0.70410156250000,-0.62500000000000,0
129,417436255,0.266530,0.276946,0.101071,0.917632,1.00000000000000,0.00008065998554,-0.00003110151738,-0.00003790762275,0.03903722763062,0.02850300073624,0.07079589366913,4.68465423583984,3.42049670219421,8.49584674835205,1.10919868946075,-0.42769366502762,-0.52128809690475,-0.87841796875000,-0.70214843750000,-0.62695312500000,0
130,417444588,0.266525,0.276938,0.101045,0.917638,1.00000000000000,0.00009193550795,-0.00003603659570,-0.00004650279880,0.03867924213409,0.02843862771988,0.07088679075241,4.64169454574585,3.41277170181274,8.50675487518311,1.26425457000732,-0.49555855989456,-0.63948494195938,-0.87988281250000,-0.69970703125000,-0.62890625000000,0
131,417452921,0.266521,0.276930,0.101026,0.917644,1.00000000000000,0.00009987596422,-0.00003275647759,-0.00005085580051,0.03904819488525,0.02840697765350,0.07095843553543,4.68597030639648,3.40897345542908,8.51535224914551,1.37344813346863,-0.45045194029808,-0.69934540987015,-0.88232421875000,-0.70214843750000,-0.62451171875000,0
132,417461254,0.266535,0.276924,0.101004,0.917644,1.00000000000000,0.00009135901928,-0.00003948900849,-0.00006784778088,0.03919130563736,0.02841597795486,0.07115358114243,4.70314455032349,3.41005349159241,8.53877067565918,1.25632703304291,-0.54303455352783,-0.93301129341125,-0.88037109375000,-0.70263671875000,-0.62353515625000,0
133,417469587,0.266539,0.276919,0.100986,0.917646,1.00000000000000,0.00009972788393,-0.00003814976662,-0.00005867984146,0.03892588615417,0.02820229530334,0.07111465930939,4.67129278182983,3.38441061973572,8.53409957885742,1.37141168117523,-0.52461785078049,-0.80693805217743,-0.88232421875000,-0.70019531250000,-0.62646484375000,0
134,417477920,0.266554,0.276907,0.100991,0.917645,1.00000000000000,0.00011460110545,-0.00002704281360,-0.00007687974721,0.03886377811432,0.02816289663315,0.07100391387939,4.66379547119141,3.38169455528259,8.52003669738770,1.57594144344330,-0.37188023328781,-1.05721473693848,-0.87792968750000,-0.70117187500000,-0.62792968750000,0
135,417486253,0.266575,0.276905,0.101001,0.917638,1.00000000000000,0.00012228358537,-0.00003680028021,-0.00008460320532,0.03917056322098,0.02851468324661,0.07100224494934,4.70068597793579,3.42372727394104,8.51985836029053,1.68158721923828,-0.50606042146683,-1.16342413425446,-0.87988281250000,-0.70263671875000,-0.62255859375000,0
136,417494586,0.266599,0.276898,0.101001,0.917633,1.00000000000000,0.00010956730694,-0.00003555789590,-0.00008436106145,0.03924185037613,0.02850097417831,0.07105594873428,4.70923089981079,3.42220020294189,8.52626132965088,1.50671899318695,-0.48897570371628,-1.16009426116943,-0.87988281250000,-0.70312500000000,-0.62548828125000,0
137,417502919,0.266621,0.276897,0.101006,0.917627,1.00000000000000,0.00011735036969,-0.00004008132964,-0.00008368585259,0.03930753469467,0.02860075235367,0.07103437185287,4.71716499328613,3.43408513069153,8.52367687225342,1.61374807357788,-0.55117994546890,-1.15080904960632,-0.87939453125000,-0.70166015625000,-0.62402343750000,0
138,417511252,0.266647,0.276890,0.101006,0.917621,1.00000000000000,0.00010952167213,-0.00003540236503,-0.00008571799845,0.03907632827759,0.02857095003128,0.07085639238358,4.68935680389404,3.43057990074158,8.50232219696045,1.50609135627747,-0.48683694005013,-1.17875432968140,-0.88085937500000,-0.70263671875000,-0.62597656250000,0
139,417519585,0.266673,0.276883,0.100999,0.917617,1.00000000000000,0.00010246131569,-0.00003677792847,-0.00008456595242,0.03915321826935,0.02865940332413,0.07110124826431,4.69860935211182,3.44126009941101,8.53166675567627,1.40900075435638,-0.50575304031372,-1.16291189193726,-0.88134765625000,-0.69873046875000,-0.62451171875000,0
140,417527918,0.266698,0.276877,0.100988,0.917613,1.00000000000000,0.00009960029274,-0.00003888644278,-0.00008095428348,0.03905785083771,0.02873158454895,0.07079714536667,4.68721389770508,3.44995856285095,8.49512577056885,1.36965715885162,-0.53474837541580,-1.11324584484100,-0.88037109375000,-0.69873046875000,-0.62548828125000,0
141,417536251,0.266714,0.276867,0.100971,0.917613,1.00000000000000,0.00009598303586,-0.00003429502249,-0.00007197260857,0.03911012411118,0.02845263481140,0.07072633504868,4.69348859786987,3.41665863990784,8.48656368255615,1.31991434097290,-0.47160926461220,-0.98973399400711,-0.88037109375000,-0.70410156250000,-0.62353515625000,0
142,417544584,0.266740,0.276860,0.100962,0.917608,1.00000000000000,0.00010109785944,-0.00003858096898,-0.00008220970631,0.03910905122757,0.02858573198318,0.07098531723022,4.69334840774536,3.43243718147278,8.51772689819336,1.39025092124939,-0.53054767847061,-1.13050985336304,-0.88134765625000,-0.70263671875000,-0.62548828125000,0
143,417552917,0.266755,0.276837,0.100952,0.917612,1.00000000000000,0.00009875278920,-0.00001963227987,-0.00007376633584,0.03908503055573,0.02842891216278,0.07099097967148,4.69022941589355,3.41387677192688,8.51843643188477,1.35800266265869,-0.26997405290604,-1.01440048217773,-0.87939453125000,-0.70312500000000,-0.62353515625000,0
144,417561250,0.266773,0.276824,0.100932,0.917613,1.00000000000000,0.00009078998119,-0.00003283098340,-0.00007105059922,0.03899216651917,0.02842527627945,0.07073509693146,4.67924642562866,3.41116905212402,8.48854923248291,1.24850177764893,-0.45147648453712,-0.97705495357513,-0.88085937500000,-0.69970703125000,-0.62207031250000,0
145,417569583,0.266788,0.276806,0.100921,0.917615,1.00000000000000,0.00009894836694,-0.00002510100603,-0.00007257983088,0.03889310359955,0.02840602397919,0.07099229097366,4.66729450225830,3.41110396385193,8.51855182647705,1.36069226264954,-0.34517741203308,-0.99808424711227,-0.88183593750000,-0.70214843750000,-0.62402343750000,0
146,417577916,0.266817,0.276789,0.100897,0.917615,1.00000000000000,0.00008373148739,-0.00003112200648,-0.00008166860789,0.03905194997787,0.02856522798538,0.07099145650864,4.68642091751099,3.42796421051025,8.51931476593018,1.15143656730652,-0.42797541618347,-1.12306904792786,-0.88134765625000,-0.70068359375000,-0.62548828125000,0
147,417586249,0.266842,0.276773,0.100882,0.917614,1.00000000000000,0.00009308569133,-0.00003008451313,-0.00008158292621,0.03910821676254,0.02855587005615,0.07101476192474,4.69313097000122,3.42900204658508,8.52126789093018,1.28007137775421,-0.41370829939842,-1.12189054489136,-0.88085937500000,-0.70117187500000,-0.62646484375000,0
148,417594582,0.266869,0.276764,0.100864,0.917610,1.00000000000000,0.00009169802070,-0.00003838259727,-0.00008127745241,0.03902542591095,0.02859604358673,0.07114785909653,4.68332624435425,3.43376564979553,8.53719043731689,1.26098871231079,-0.52781975269318,-1.11768996715546,-0.87841796875000,-0.70214843750000,-0.62451171875000,0
149,417602915,0.266898,0.276750,0.100844,0.917609,1.00000000000000,0.00008833222091,-0.00003301445395,-0.00008372496814,0.03895443677902,0.02866041660309,0.07100820541382,4.67470598220825,3.44153141975403,8.52046680450439,1.21470391750336,-0.45399948954582,-1.15134692192078,-0.88037109375000,-0.69970703125000,-0.62792968750000,0
150,417611248,0.266920,0.276733,0.100803,0.917612,1.00000000000000,0.00006963312626,-0.00003543403000,-0.00006979797035,0.03907644748688,0.02869337797165,0.07072585821152,4.68936157226562,3.44334292411804,8.48744201660156,0.95756256580353,-0.48727238178253,-0.95982939004898,-0.88134765625000,-0.70410156250000,-0.62744140625000,0
151,417619581,0.266942,0.276720,0.100761,0.917614,1.00000000000000,0.00006992276758,-0.00003812462091,-0.00006905198097,0.03895688056946,0.02871006727219,0.07091301679611,4.67501211166382,3.44534564018250,8.50990200042725,0.96154552698135,-0.52427214384079,-0.94957089424133,-0.88134765625000,-0.70166015625000,-0.62500000000000,0
152,417627914,0.266971,0.276696,0.100718,0.917618,1.00000000000000,0.00006320606917,-0.00002894550562,-0.00007644854486,0.03902453184128,0.02857333421707,0.07059305906296,4.68313074111938,3.42893695831299,8.47150611877441,0.86918056011200,-0.39804521203041,-1.05128490924835,-0.88134765625000,-0.69921875000000,-0.62548828125000,0
153,417636247,0.266995,0.276682,0.100671,0.917620,1.00000000000000,0.00006482750177,-0.00003895442933,-0.00007033254951,0.03905230760574,0.02804660797119,0.07100707292557,4.68646430969238,3.36572742462158,8.52118873596191,0.89147788286209,-0.53568333387375,-0.96718072891235,-0.87939453125000,-0.69726562500000,-0.62500000000000,0
154,417644580,0.267021,0.276679,0.100650,0.917615,1.00000000000000,0.00009110756218,-0.00004502292722,-0.00007980596274,0.03879576921463,0.02749794721603,0.07095485925674,4.65589237213135,3.30193328857422,8.51401233673096,1.25286900997162,-0.61913448572159,-1.09745466709137,-0.87792968750000,-0.70263671875000,-0.62744140625000,0
155,417652913,0.267063,0.276679,0.100680,0.917600,1.00000000000000,0.00013604108244,-0.00003863498569,-0.00011142343283,0.03893536329269,0.02854782342911,0.07094234228134,4.67238140106201,3.42741918563843,8.51282691955566,1.87077391147614,-0.53129047155380,-1.53224360942841,-0.87792968750000,-0.69970703125000,-0.62646484375000,0
156,417661246,0.267097,0.276681,0.100674,0.917590,1.00000000000000,0.00010418426245,-0.00004657357931,-0.00009126216173,0.03907459974289,0.02870619297028,0.07096469402313,4.68925428390503,3.44671630859375,8.51529788970947,1.43269371986389,-0.64045834541321,-1.25499498844147,-0.87841796875000,-0.70068359375000,-0.62646484375000,0
157,417669579,0.267129,0.276678,0.100674,0.917582,1.00000000000000,0.00010965671390,-0.00004117749631,-0.00009241513908,0.03903406858444,0.02833998203278,0.07105690240860,4.68432426452637,3.40276479721069,8.52641201019287,1.50794839859009,-0.56625384092331,-1.27085030078888,-0.87939453125000,-0.70312500000000,-0.62548828125000,0
158,417677912,0.267154,0.276682,0.100691,0.917571,1.00000000000000,0.00012798327953,-0.00004231743515,-0.00009003467858,0.03911864757538,0.02863663434982,0.07079499959946,4.69448184967041,3.43824577331543,8.49501514434814,1.75996673107147,-0.58192980289459,-1.23811519145966,-0.88037109375000,-0.70312500000000,-0.62548828125000,0
159,417686245,0.267176,0.276685,0.100695,0.917564,1.00000000000000,0.00011820625514,-0.00004323944449,-0.00008375197649,0.03890597820282,0.02884322404861,0.07092410326004,4.66900539398193,3.46314668655396,8.51043605804443,1.62551784515381,-0.59460884332657,-1.15171849727631,-0.87792968750000,-0.70361328125000,-0.62939453125000,0
160,417694578,0.267201,0.276682,0.100695,0.917557,1.00000000000000,0.00011070538312,-0.00003917515278,-0.00008443184197,0.03894132375717,0.02858346700668,0.07098525762558,4.67320823669434,3.43205833435059,8.51776981353760,1.52236938476562,-0.53871864080429,-1.16106784343719,-0.87890625000000,-0.70068359375000,-0.62744140625000,0
161,417702911,0.267222,0.276677,0.100704,0.917552,1.00000000000000,0.00011978019029,-0.00003527849913,-0.00008478760719,0.03888851404190,0.02854067087173,0.07081848382950,4.66682004928589,3.42686676979065,8.49780464172363,1.64716184139252,-0.48513361811638,-1.16595995426178,-0.88183593750000,-0.70361328125000,-0.62744140625000,0
162,417711244,0.267243,0.276673,0.100705,0.917547,1.00000000000000,0.00011259410530,-0.00003747455776,-0.00008119828999,0.03891605138779,0.02858948707581,0.07081127166748,4.67017030715942,3.43280100822449,8.49688243865967,1.54834210872650,-0.51533275842667,-1.11660122871399,-0.88134765625000,-0.70166015625000,-0.62695312500000,0
163,417719577,0.267259,0.276666,0.100703,0.917545,1.00000000000000,0.00010994542390,-0.00003360211849,-0.00007521174848,0.03881537914276,0.02850008010864,0.07100391387939,4.65807723999023,3.42217850685120,8.51996898651123,1.51191878318787,-0.46208080649376,-1.03427731990814,-0.88037109375000,-0.70019531250000,-0.62451171875000,0
164,417727910,0.267279,0.276651,0.100703,0.917543,1.00000000000000,0.00010839384049,-0.00002712383866,-0.00008018873632,0.03892797231674,0.02823573350906,0.07127815485001,4.67148017883301,3.39047408103943,8.55294227600098,1.49058187007904,-0.37299448251724,-1.10271823406219,-0.87939453125000,-0.70117187500000,-0.62646484375000,0
165,417736243,0.267303,0.276643,0.100711,0.917538,1.00000000000000,0.00011758692563,-0.00003147963434,-0.00008752476424,0.03898876905441,0.02833122014999,0.07094752788544,4.67879915237427,3.40175223350525,8.51331806182861,1.61700093746185,-0.43289336562157,-1.20360004901886,-0.87792968750000,-0.70068359375000,-0.62500000000000,0
166,417744576,0.267329,0.276640,0.100724,0.917529,1.00000000000000,0.00012198835611,-0.00003684777766,-0.00009010080248,0.03901010751724,0.02846509218216,0.07108050584793,4.68140745162964,3.41773676872253,8.52928066253662,1.67752754688263,-0.50671356916428,-1.23902451992035,-0.87841796875000,-0.70117187500000,-0.62451171875000,0
167,417752909,0.267355,0.276635,0.100744,0.917521,1.00000000000000,0.00012923125178,-0.00003223121166,-0.00009245425463,0.03887802362442,0.02859789133072,0.07114613056183,4.66550159454346,3.43362402915955,8.53720283508301,1.77712833881378,-0.44322869181633,-1.27138805389404,-0.87695312500000,-0.70361328125000,-0.62451171875000,0
168,417761242,0.267387,0.276633,0.100754,0.917511,1.00000000000000,0.00011882279068,-0.00003919005394,-0.00009454227984,0.03910851478577,0.02862262725830,0.07112592458725,4.69322109222412,3.43661904335022,8.53473472595215,1.63399600982666,-0.53892350196838,-1.30010151863098,-0.87988281250000,-0.69970703125000,-0.62744140625000,0
169,417769575,0.267420,0.276640,0.100763,0.917498,1.00000000000000,0.00012103933841,-0.00004932470620,-0.00009615533054,0.03890818357468,0.02852076292038,0.07114654779434,4.66927242279053,3.42430591583252,8.53719711303711,1.66447699069977,-0.67829048633575,-1.32228350639343,-0.88037109375000,-0.70214843750000,-0.62304687500000,0
170,417777908,0.267452,0.276649,0.100779,0.917485,1.00000000000000,0.00012660305947,-0.00004817359149,-0.00009628385305,0.03902488946915,0.02862507104874,0.07111525535583,4.68326044082642,3.43679809570312,8.53345870971680,1.74098658561707,-0.66246092319489,-1.32405090332031,-0.87939453125000,-0.70214843750000,-0.62744140625000,0
171,417786241,0.267478,0.276659,0.100787,0.917473,1.00000000000000,0.00012204330415,-0.00005067139864,-0.00008877925575,0.03892797231674,0.02871018648148,0.07070714235306,4.67168903350830,3.44706535339355,8.48442363739014,1.67828321456909,-0.69680964946747,-1.22085142135620,-0.87744140625000,-0.70214843750000,-0.62792968750000,0
172,417794574,0.267499,0.276663,0.100790,0.917466,1.00000000000000,0.00011675525457,-0.00004521571100,-0.00008151493967,0.03889405727386,0.02836954593658,0.07099395990372,4.66761684417725,3.40631747245789,8.51880264282227,1.60556435585022,-0.62178558111191,-1.12095570564270,-0.88134765625000,-0.70019531250000,-0.62744140625000,0
173,417802907,0.267514,0.276662,0.100805,0.917460,1.00000000000000,0.00012894719839,-0.00003630388528,-0.00007956195623,0.03899639844894,0.02823978662491,0.07096600532532,4.67980289459229,3.39071464538574,8.51551437377930,1.77322208881378,-0.49923422932625,-1.09409916400909,-0.87890625000000,-0.70361328125000,-0.62402343750000,0
174,417811240,0.267535,0.276670,0.100837,0.917448,1.00000000000000,0.00014461390674,-0.00004177633673,-0.00009119603783,0.03879827260971,0.02811938524246,0.07086795568466,4.65602445602417,3.37605261802673,8.50383758544922,1.98866355419159,-0.57448887825012,-1.25408565998077,-0.87792968750000,-0.70166015625000,-0.62890625000000,0
175,417819573,0.267572,0.276685,0.100886,0.917427,1.00000000000000,0.00015904475003,-0.00004829093814,-0.00011140666902,0.03909707069397,0.02872729301453,0.07093429565430,4.69185543060303,3.44880938529968,8.51187896728516,2.18710994720459,-0.66407465934753,-1.53201293945312,-0.87939453125000,-0.70507812500000,-0.62451171875000,0
176,417827906,0.267600,0.276684,0.100912,0.917417,1.00000000000000,0.00013477541506,-0.00003544520587,-0.00009583961219,0.03913015127182,0.02897411584854,0.07078582048416,4.69577217102051,3.47869420051575,8.49397563934326,1.85336911678314,-0.48742604255676,-1.31794214248657,-0.87988281250000,-0.70166015625000,-0.62695312500000,0
177,417836239,0.267626,0.276689,0.100924,0.917406,1.00000000000000,0.00012403540313,-0.00004480686039,-0.00008989404887,0.03886824846268,0.02895408868790,0.07116550207138,4.66445875167847,3.47635984420776,8.53945350646973,1.70567739009857,-0.61616319417953,-1.23618137836456,-0.87646484375000,-0.70214843750000,-0.62744140625000,0
178,417844572,0.267650,0.276688,0.100928,0.917399,1.00000000000000,0.00011556502432,-0.00004035420716,-0.00008516758680,0.03897476196289,0.02871417999268,0.07089197635651,4.67722463607788,3.44769048690796,8.50659084320068,1.58919680118561,-0.55493241548538,-1.17118537425995,-0.87988281250000,-0.70019531250000,-0.62646484375000,0
179,417852905,0.267668,0.276683,0.100922,0.917396,1.00000000000000,0.00010675843805,-0.00003752112389,-0.00007636286318,0.03904092311859,0.02842038869858,0.07086855173111,4.68519163131714,3.41260719299316,8.50370311737061,1.46809256076813,-0.51597309112549,-1.05010664463043,-0.88085937500000,-0.69921875000000,-0.62695312500000,0
180,417861238,0.267694,0.276674,0.100915,0.917392,1.00000000000000,0.00010278634727,-0.00003516953439,-0.00008377898484,0.03889364004135,0.02859997749329,0.07087165117264,4.66744136810303,3.43413805961609,8.50411987304688,1.41347026824951,-0.48363512754440,-1.15208983421326,-0.87792968750000,-0.70361328125000,-0.62451171875000,0
181,417869571,0.267716,0.276671,0.100907,0.917387,1.00000000000000,0.00010368786752,-0.00004001241177,-0.00007996428758,0.03879028558731,0.02862513065338,0.07104343175888,4.65512561798096,3.43715000152588,8.52468967437744,1.42586755752563,-0.55023217201233,-1.09963190555573,-0.87939453125000,-0.70166015625000,-0.62695312500000,0
182,417877904,0.267730,0.276659,0.100904,0.917387,1.00000000000000,0.00010824669152,-0.00002986378968,-0.00007282570004,0.03882598876953,0.02830332517624,0.07096379995346,4.65931558609009,3.39863228797913,8.51515197753906,1.48855841159821,-0.41067302227020,-1.00146532058716,-0.88134765625000,-0.70117187500000,-0.62646484375000,0
183,417886237,0.267758,0.276656,0.100911,0.917379,1.00000000000000,0.00011763814837,-0.00003775767982,-0.00009079277515,0.03893059492111,0.02847439050674,0.07109963893890,4.67187261581421,3.41887331008911,8.53156375885010,1.61770534515381,-0.51922619342804,-1.24854028224945,-0.88037109375000,-0.70263671875000,-0.62646484375000,0
184,417894570,0.267781,0.276655,0.100913,0.917372,1.00000000000000,0.00011287163943,-0.00004073977470,-0.00008405931294,0.03883004188538,0.02876168489456,0.07088577747345,4.65986919403076,3.45341682434082,8.50582790374756,1.55215859413147,-0.56023454666138,-1.15594470500946,-0.87988281250000,-0.70410156250000,-0.62695312500000,0
185,417902903,0.267813,0.276663,0.100902,0.917362,1.00000000000000,0.00010329764336,-0.00005395337939,-0.00008880533278,0.03901487588882,0.02847921848297,0.07137662172318,4.68219232559204,3.41944837570190,8.56469535827637,1.42050135135651,-0.74194192886353,-1.22120988368988,-0.88037109375000,-0.70312500000000,-0.62744140625000,0
186,417911236,0.267844,0.276677,0.100900,0.917349,1.00000000000000,0.00011165160686,-0.00005821883678,-0.00008927658200,0.03905117511749,0.02845042943954,0.07089418172836,4.68656682968140,3.41589951515198,8.50682353973389,1.53538119792938,-0.80059850215912,-1.22769021987915,-0.87841796875000,-0.70312500000000,-0.62695312500000,0
187,417919569,0.267870,0.276691,0.100907,0.917336,1.00000000000000,0.00012316741049,-0.00005509797484,-0.00008866284043,0.03875195980072,0.02864581346512,0.07126981019974,4.65061092376709,3.43931078910828,8.55194187164307,1.69374144077301,-0.75768196582794,-1.21925044059753,-0.87597656250000,-0.69970703125000,-0.62353515625000,0
188,417927902,0.267885,0.276707,0.100909,0.917327,1.00000000000000,0.00012036878616,-0.00005630217493,-0.00007504224777,0.03875696659088,0.02842253446579,0.07080751657486,4.65130567550659,3.41259527206421,8.49637985229492,1.65525579452515,-0.77424150705338,-1.03194630146027,-0.87353515625000,-0.70214843750000,-0.62500000000000,0
189,417936235,0.267904,0.276728,0.100919,0.917314,1.00000000000000,0.00012981519103,-0.00005924422294,-0.00008218083531,0.03891575336456,0.02841967344284,0.07107925415039,4.67032432556152,3.41213583946228,8.52906036376953,1.78515863418579,-0.81469917297363,-1.13011288642883,-0.88378906250000,-0.70410156250000,-0.62255859375000,0
190,417944568,0.267922,0.276750,0.100929,0.917301,1.00000000000000,0.00012808106840,-0.00006068777293,-0.00008075404912,0.03886967897415,0.02885180711746,0.07099318504333,4.66481399536133,3.46399974822998,8.51871013641357,1.76131176948547,-0.83455026149750,-1.11049234867096,-0.87695312500000,-0.70410156250000,-0.62402343750000,0
191,417952901,0.267932,0.276771,0.100923,0.917292,1.00000000000000,0.00011747237295,-0.00006182491779,-0.00006784871221,0.03890788555145,0.02889448404312,0.07087254524231,4.66952180862427,3.46924066543579,8.50411033630371,1.61542570590973,-0.85018765926361,-0.93302410840988,-0.88183593750000,-0.69921875000000,-0.62695312500000,0
192,417961234,0.267937,0.276792,0.100908,0.917286,1.00000000000000,0.00010888930410,-0.00006414018571,-0.00005976669490,0.03875595331192,0.02872216701508,0.07125538587570,4.65142202377319,3.44864153862000,8.54996013641357,1.49739527702332,-0.88202613592148,-0.82188391685486,-0.87841796875000,-0.70312500000000,-0.62744140625000,0
193,417969567,0.267929,0.276807,0.100884,0.917286,1.00000000000000,0.00010223966092,-0.00005682371557,-0.00004480034113,0.03913319110870,0.02861106395721,0.07089513540268,4.69679594039917,3.43551611900330,8.50658130645752,1.40595257282257,-0.78141343593597,-0.61607354879379,-0.87841796875000,-0.70068359375000,-0.62402343750000,0
194,417977900,0.267924,0.276818,0.100865,0.917287,1.00000000000000,0.00010481849313,-0.00005234871060,-0.00004901085049,0.03926736116409,0.02839177846909,0.07109183073044,4.71278810501099,3.40922856330872,8.53024482727051,1.44141554832458,-0.71987533569336,-0.67397457361221,-0.87841796875000,-0.69970703125000,-0.62451171875000,0
195,417986233,0.267920,0.276822,0.100848,0.917288,1.00000000000000,0.00010444130749,-0.00004479847848,-0.00005165487528,0.03910839557648,0.02805304527283,0.07111006975174,4.69359302520752,3.36866807937622,8.53247451782227,1.43622839450836,-0.61604797840118,-0.71033388376236,-0.87988281250000,-0.70068359375000,-0.62548828125000,0
196,417994566,0.267928,0.276838,0.100862,0.917280,1.00000000000000,0.00013311486691,-0.00005257315934,-0.00007127784193,0.03897780179977,0.02813547849655,0.07118499279022,4.67776632308960,3.37810635566711,8.54172992706299,1.83053410053253,-0.72296178340912,-0.98017984628677,-0.87890625000000,-0.70214843750000,-0.62597656250000,0
197,418002899,0.267935,0.276847,0.100880,0.917273,1.00000000000000,0.00013653095812,-0.00004364550114,-0.00007266178727,0.03890699148178,0.02849084138870,0.07122856378555,4.66916942596436,3.42077589035034,8.54699516296387,1.87751054763794,-0.60019272565842,-0.99921125173569,-0.87597656250000,-0.70312500000000,-0.62597656250000,0
198,418011232,0.267941,0.276860,0.100893,0.917266,1.00000000000000,0.00013198982924,-0.00004916265607,-0.00006956048310,0.03901827335358,0.02847719192505,0.07082062959671,4.68259716033936,3.41914749145508,8.49799156188965,1.81506299972534,-0.67606216669083,-0.95656353235245,-0.87792968750000,-0.69921875000000,-0.62402343750000,0
199,418019565,0.267953,0.276876,0.100907,0.917256,1.00000000000000,0.00013316329569,-0.00005177408457,-0.00007672421634,0.03934609889984,0.02879947423935,0.07084709405899,4.72191858291626,3.45776844024658,8.50119209289551,1.83120024204254,-0.71197330951691,-1.05507600307465,-0.87988281250000,-0.70117187500000,-0.62500000000000,0
200,418027898,0.267952,0.276888,0.100913,0.917252,1.00000000000000,0.00012737140059,-0.00004869233817,-0.00005993340164,0.03890007734299,0.02865052223206,0.07090151309967,4.66847467422485,3.44003105163574,8.50762653350830,1.75155270099640,-0.66959458589554,-0.82417649030685,-0.87841796875000,-0.70263671875000,-0.62548828125000,0
201,418036231,0.267952,0.276891,0.100902,0.917252,1.00000000000000,0.00010864622891,-0.00004289206117,-0.00005778763443,0.03881764411926,0.02864235639572,0.07105350494385,4.65859651565552,3.43931818008423,8.52575492858887,1.49405264854431,-0.58983176946640,-0.79466885328293,-0.87890625000000,-0.70166015625000,-0.62207031250000,0
202,418044564,0.267956,0.276886,0.100901,0.917253,1.00000000000000,0.00011499226093,-0.00003380980343,-0.00006359908730,0.03904914855957,0.02842015028000,0.07101565599442,4.68620061874390,3.41262340545654,8.52132892608643,1.58132040500641,-0.46493673324585,-0.87458521127701,-0.87695312500000,-0.70410156250000,-0.62744140625000,0
203,418052897,0.267965,0.276886,0.100910,0.917249,1.00000000000000,0.00012400560081,-0.00003726687282,-0.00007217284292,0.03898698091507,0.02851450443268,0.07082283496857,4.67871952056885,3.42376446723938,8.49826812744141,1.70526766777039,-0.51247674226761,-0.99248754978180,-0.88085937500000,-0.70214843750000,-0.62158203125000,0
204,418061230,0.267980,0.276877,0.100915,0.917247,1.00000000000000,0.00011651124805,-0.00003065541387,-0.00007655657828,0.03900533914566,0.02868574857712,0.07090264558792,4.68082332611084,3.44440126419067,8.50786113739014,1.60220885276794,-0.42155912518501,-1.05277073383331,-0.87744140625000,-0.70166015625000,-0.62353515625000,0
205,418069563,0.267989,0.276873,0.100917,0.917245,1.00000000000000,0.00011701695621,-0.00003515742719,-0.00006960704923,0.03908771276474,0.02854639291763,0.07090353965759,4.69080400466919,3.42769670486450,8.50791168212891,1.60916304588318,-0.48346871137619,-0.95720398426056,-0.87890625000000,-0.70214843750000,-0.62402343750000,0
206,418077896,0.268004,0.276875,0.100925,0.917239,1.00000000000000,0.00012139976025,-0.00004009995610,-0.00007759686559,0.03920048475266,0.02853804826736,0.07103985548019,4.70434713363647,3.42656803131104,8.52431774139404,1.66943335533142,-0.55143600702286,-1.06707620620728,-0.87988281250000,-0.70312500000000,-0.62597656250000,0
207,418086229,0.268018,0.276874,0.100926,0.917236,1.00000000000000,0.00011573359370,-0.00003885757178,-0.00007386226207,0.03902143239975,0.02815383672714,0.07111656665802,4.68287897109985,3.38054728507996,8.53348922729492,1.59151482582092,-0.53435128927231,-1.01571965217590,-0.87988281250000,-0.70312500000000,-0.62646484375000,0
208,418094562,0.268041,0.276875,0.100945,0.917226,1.00000000000000,0.00013003963977,-0.00003903917968,-0.00008930824697,0.03895771503448,0.02808833122253,0.07090067863464,4.67514753341675,3.37245392799377,8.50771999359131,1.78824520111084,-0.53684878349304,-1.22812581062317,-0.88134765625000,-0.69775390625000,-0.62109375000000,0
209,418102895,0.268069,0.276891,0.100988,0.917209,1.00000000000000,0.00015575718135,-0.00004832074046,-0.00010109134018,0.03896862268448,0.02869284152985,0.07092624902725,4.67647266387939,3.44473433494568,8.51087284088135,2.14190053939819,-0.66448450088501,-1.39016127586365,-0.87841796875000,-0.70166015625000,-0.62548828125000,0
210,418111228,0.268103,0.276903,0.101017,0.917192,1.00000000000000,0.00013968441635,-0.00004907138646,-0.00010187923908,0.03911113739014,0.02879786491394,0.07082217931747,4.69358396530151,3.45741844177246,8.49834251403809,1.92087543010712,-0.67480701208115,-1.40099608898163,-0.87646484375000,-0.70751953125000,-0.62744140625000,0
211,418119561,0.268134,0.276910,0.101036,0.917179,1.00000000000000,0.00013045873493,-0.00004583783448,-0.00009678304195,0.03881829977036,0.02882212400436,0.07089781761169,4.65843963623047,3.46042585372925,8.50738239288330,1.79400813579559,-0.63034063577652,-1.33091557025909,-0.87792968750000,-0.70166015625000,-0.62304687500000,0
212,418127894,0.268167,0.276918,0.101053,0.917165,1.00000000000000,0.00012777093798,-0.00004854425788,-0.00009775720537,0.03883725404739,0.02899748086929,0.07070887088776,4.66073179244995,3.48146176338196,8.48469543457031,1.75704681873322,-0.66755813360214,-1.34431183338165,-0.87841796875000,-0.70410156250000,-0.62451171875000,0
213,418136227,0.268194,0.276922,0.101047,0.917156,1.00000000000000,0.00010755937546,-0.00004749000072,-0.00008638761938,0.03889626264572,0.02893441915512,0.07117491960526,4.66788530349731,3.47411942481995,8.54049873352051,1.47910666465759,-0.65306049585342,-1.18796253204346,-0.87939453125000,-0.70361328125000,-0.62500000000000,0
214,418144560,0.268215,0.276927,0.101045,0.917149,1.00000000000000,0.00011242274195,-0.00004741922021,-0.00007952190936,0.03895872831345,0.02863878011703,0.07077658176422,4.67541599273682,3.43865466117859,8.49267482757568,1.54598546028137,-0.65208715200424,-1.09354841709137,-0.88037109375000,-0.70458984375000,-0.62597656250000,0
215,418152893,0.268244,0.276930,0.101050,0.917139,1.00000000000000,0.00011640507728,-0.00004500709474,-0.00009085983038,0.03907185792923,0.02866810560226,0.07091575860977,4.68889856338501,3.44208192825317,8.50946617126465,1.60074877738953,-0.61891680955887,-1.24946236610413,-0.87939453125000,-0.70117187500000,-0.62207031250000,0
216,418161226,0.268262,0.276932,0.101036,0.917134,1.00000000000000,0.00010121893138,-0.00004640035331,-0.00007409788668,0.03892767429352,0.02858483791351,0.07087075710297,4.67174100875854,3.43232798576355,8.50389003753662,1.39191591739655,-0.63807618618011,-1.01895987987518,-0.87841796875000,-0.69970703125000,-0.62451171875000,0
217,418169559,0.268283,0.276934,0.101036,0.917128,1.00000000000000,0.00011338759214,-0.00004350394011,-0.00008065253496,0.03917658329010,0.02865821123123,0.07102614641190,4.70150852203369,3.44100952148438,8.52264404296875,1.55925369262695,-0.59824603796005,-1.10909640789032,-0.87988281250000,-0.70214843750000,-0.62646484375000,0
218,418177892,0.268303,0.276936,0.101034,0.917122,1.00000000000000,0.00011123251170,-0.00004444643855,-0.00007931701839,0.03910100460052,0.02865296602249,0.07102203369141,4.69246101379395,3.44039964675903,8.52213096618652,1.52961802482605,-0.61120682954788,-1.09073090553284,-0.87744140625000,-0.70312500000000,-0.62646484375000,0
219,418186225,0.268320,0.276936,0.101025,0.917118,1.00000000000000,0.00010593794286,-0.00004249345511,-0.00007435958833,0.03870850801468,0.02863645553589,0.07104372978210,4.64537763595581,3.43851685523987,8.52468585968018,1.45680952072144,-0.58435028791428,-1.02255856990814,-0.87939453125000,-0.70263671875000,-0.62548828125000,0
220,418194558,0.268339,0.276948,0.101018,0.917109,1.00000000000000,0.00011047162116,-0.00005519669503,-0.00007696542889,0.03880101442337,0.02874708175659,0.07110279798508,4.65659666061401,3.45161867141724,8.53177833557129,1.51915454864502,-0.75903940200806,-1.05839300155640,-0.87890625000000,-0.70214843750000,-0.62646484375000,0
221,418202891,0.268357,0.276956,0.101010,0.917103,1.00000000000000,0.00010867044330,-0.00005018245429,-0.00007508229464,0.03891277313232,0.02877557277679,0.07091921567917,4.66996955871582,3.45511054992676,8.50973606109619,1.49438571929932,-0.69008594751358,-1.03249704837799,-0.88134765625000,-0.70019531250000,-0.62207031250000,0
222,418211224,0.268367,0.276958,0.100991,0.917101,1.00000000000000,0.00009849015623,-0.00004655309021,-0.00006446242332,0.03898960351944,0.02848589420319,0.07097417116165,4.67926645278931,3.42056512832642,8.51620864868164,1.35439097881317,-0.64017653465271,-0.88645738363266,-0.87744140625000,-0.70361328125000,-0.62646484375000,0
223,418219557,0.268379,0.276964,0.100981,0.917097,1.00000000000000,0.00010763574392,-0.00004888325930,-0.00006955303252,0.03899937868118,0.02857512235641,0.07114964723587,4.68039608001709,3.43112301826477,8.53735160827637,1.48015701770782,-0.67221993207932,-0.95646107196808,-0.87988281250000,-0.70361328125000,-0.62597656250000,0
224,418227890,0.268401,0.276976,0.100975,0.917088,1.00000000000000,0.00011024903506,-0.00005459040403,-0.00007892772555,0.03904700279236,0.02853494882584,0.07120156288147,4.68610048294067,3.42616057395935,8.54364585876465,1.51609361171722,-0.75070196390152,-1.08537757396698,-0.87597656250000,-0.70556640625000,-0.62500000000000,0
225,418236223,0.268416,0.276981,0.100974,0.917082,1.00000000000000,0.00011473800987,-0.00004572235048,-0.00007514283061,0.03898578882217,0.02846491336823,0.07101917266846,4.67867088317871,3.41782140731812,8.52177715301514,1.57782411575317,-0.62875264883041,-1.03332948684692,-0.87939453125000,-0.70312500000000,-0.62402343750000,0
226,418244556,0.268431,0.276978,0.100970,0.917079,1.00000000000000,0.00011007953435,-0.00003872439265,-0.00007416680455,0.03895503282547,0.02876651287079,0.07102221250534,4.67490577697754,3.45412254333496,8.52213096618652,1.51376283168793,-0.53251993656158,-1.01990759372711,-0.87792968750000,-0.70410156250000,-0.62402343750000,0
227,418252889,0.268448,0.276970,0.100959,0.917077,1.00000000000000,0.00010116584599,-0.00003587920219,-0.00007372256368,0.03904587030411,0.02868318557739,0.07102173566818,4.68578290939331,3.44424200057983,8.52204036712646,1.39118599891663,-0.49339431524277,-1.01379883289337,-0.88134765625000,-0.69970703125000,-0.62402343750000,0
228,418261222,0.268462,0.276969,0.100949,0.917074,1.00000000000000,0.00010519847274,-0.00004174653441,-0.00007110927254,0.03888970613480,0.02854132652283,0.07115900516510,4.66713953018188,3.42714834213257,8.53849601745605,1.44664096832275,-0.57407903671265,-0.97786188125610,-0.87597656250000,-0.70019531250000,-0.62597656250000,0
229,418269555,0.268473,0.276967,0.100926,0.917075,1.00000000000000,0.00009296927601,-0.00004316121340,-0.00006438791752,0.03896605968475,0.02868413925171,0.07100188732147,4.67611408233643,3.44223403930664,8.52056694030762,1.27847051620483,-0.59353309869766,-0.88543289899826,-0.88037109375000,-0.70117187500000,-0.62158203125000,0
230,418277888,0.268486,0.276954,0.100923,0.917075,1.00000000000000,0.00010802131146,-0.00002802722156,-0.00007206201553,0.03908336162567,0.02857851982117,0.07128089666367,4.69017887115479,3.43169093132019,8.55320262908936,1.48545920848846,-0.38541743159294,-0.99096357822418,-0.87792968750000,-0.70410156250000,-0.62597656250000,0
231,418286221,0.268499,0.276950,0.100904,0.917075,1.00000000000000,0.00009583029896,-0.00004011020064,-0.00006785802543,0.03900372982025,0.02861529588699,0.07121396064758,4.68084621429443,3.43617224693298,8.54501533508301,1.31781399250031,-0.55157691240311,-0.93315219879150,-0.87841796875000,-0.70410156250000,-0.62597656250000,0
232,418294554,0.268515,0.276943,0.100891,0.917073,1.00000000000000,0.00010012183338,-0.00003689341247,-0.00007162429392,0.03885865211487,0.02838629484177,0.07100051641464,4.66335105895996,3.40863347053528,8.51947593688965,1.37682914733887,-0.50734114646912,-0.98494422435760,-0.88037109375000,-0.70361328125000,-0.62255859375000,0
233,418302887,0.268531,0.276938,0.100891,0.917070,1.00000000000000,0.00011345837265,-0.00003590621054,-0.00007628276944,0.03895950317383,0.02846139669418,0.07089889049530,4.67539405822754,3.41747570037842,8.50737857818604,1.56022715568542,-0.49376559257507,-1.04900538921356,-0.87890625000000,-0.70312500000000,-0.62646484375000,0
234,418311220,0.268543,0.276929,0.100886,0.917070,1.00000000000000,0.00010698568076,-0.00003279745579,-0.00007052533329,0.03901469707489,0.02893066406250,0.07094341516495,4.68200874328613,3.47393226623535,8.51265525817871,1.47121751308441,-0.45101544260979,-0.96983170509338,-0.87792968750000,-0.70068359375000,-0.62548828125000,0
235,418319553,0.268553,0.276923,0.100872,0.917070,1.00000000000000,0.00010083895177,-0.00003695487976,-0.00006655603647,0.03904300928116,0.02857786417007,0.07092028856277,4.68550872802734,3.43166470527649,8.50980567932129,1.38669061660767,-0.50818639993668,-0.91524779796600,-0.88037109375000,-0.70263671875000,-0.62402343750000,0
236,418327886,0.268566,0.276915,0.100873,0.917069,1.00000000000000,0.00011296011508,-0.00003171060234,-0.00007333327085,0.03893119096756,0.02839779853821,0.07093697786331,4.67196035385132,3.40990209579468,8.51194763183594,1.55337524414062,-0.43606954813004,-1.00844526290894,-0.87792968750000,-0.70458984375000,-0.62695312500000,0
237,418336219,0.268575,0.276912,0.100865,0.917068,1.00000000000000,0.00010828860104,-0.00003768969327,-0.00006756838411,0.03909718990326,0.02875894308090,0.07109940052032,4.69199895858765,3.45329952239990,8.53134346008301,1.48913478851318,-0.51829123497009,-0.92916923761368,-0.87988281250000,-0.70312500000000,-0.62353515625000,0
238,418344552,0.268583,0.276899,0.100853,0.917071,1.00000000000000,0.00010078586638,-0.00002939160913,-0.00006378348917,0.03894627094269,0.02857035398483,0.07080030441284,4.67379999160767,3.43085932731628,8.49542236328125,1.38596081733704,-0.40417987108231,-0.87712109088898,-0.88037109375000,-0.70458984375000,-0.62402343750000,0
239,418352885,0.268593,0.276885,0.100844,0.917073,1.00000000000000,0.00010283757001,-0.00002800673246,-0.00006838887930,0.03907048702240,0.02849960327148,0.07099384069443,4.68865394592285,3.42231273651123,8.51870155334473,1.41417491436005,-0.38513565063477,-0.94045227766037,-0.87939453125000,-0.70312500000000,-0.62255859375000,0
240,418361218,0.268603,0.276878,0.100834,0.917073,1.00000000000000,0.00010442640632,-0.00003541074693,-0.00006701052189,0.03927522897720,0.02854079008102,0.07122999429703,4.71334648132324,3.42719483375549,8.54700088500977,1.43602383136749,-0.48695230484009,-0.92149776220322,-0.87890625000000,-0.70166015625000,-0.62744140625000,0
241,418369551,0.268619,0.276874,0.100819,0.917072,1.00000000000000,0.00009849108756,-0.00003973674029,-0.00007155258209,0.03894436359406,0.02852696180344,0.07114320993423,4.67368125915527,3.42550802230835,8.53657627105713,1.35440385341644,-0.54644125699997,-0.98395800590515,-0.87792968750000,-0.70263671875000,-0.62744140625000,0
242,418377884,0.268636,0.276870,0.100814,0.917068,1.00000000000000,0.00010829232633,-0.00003798585385,-0.00007545854896,0.03897279500961,0.02837663888931,0.07081013917923,4.67702579498291,3.40734362602234,8.49669361114502,1.48918592929840,-0.52236384153366,-1.03767108917236,-0.87500000000000,-0.70263671875000,-0.62548828125000,0
243,418386217,0.268649,0.276868,0.100814,0.917065,1.00000000000000,0.00011429656297,-0.00003858655691,-0.00007319822907,0.03892207145691,0.02848446369171,0.07100182771683,4.67095279693604,3.42024135589600,8.51970481872559,1.57175338268280,-0.53062450885773,-1.00658822059631,-0.87890625000000,-0.70263671875000,-0.62597656250000,0
244,418394550,0.268664,0.276868,0.100814,0.917061,1.00000000000000,0.00011374335736,-0.00004081986845,-0.00007471628487,0.03895741701126,0.02848929166794,0.07084614038467,4.67521190643311,3.42079496383667,8.50102043151855,1.56414616107941,-0.56133598089218,-1.02746391296387,-0.87988281250000,-0.70068359375000,-0.62548828125000,0
245,418402883,0.268680,0.276866,0.100825,0.917055,1.00000000000000,0.00012447591871,-0.00003590434790,-0.00008023157716,0.03897684812546,0.02867078781128,0.07087785005569,4.67744636535645,3.44247245788574,8.50491714477539,1.71173536777496,-0.49374002218246,-1.10330760478973,-0.87646484375000,-0.70654296875000,-0.62695312500000,0
246,418411216,0.268696,0.276869,0.100818,0.917051,1.00000000000000,0.00010861735791,-0.00004525482655,-0.00007318705320,0.03904658555984,0.02890110015869,0.07089161872864,4.68597984313965,3.47023653984070,8.50641918182373,1.49365592002869,-0.62232345342636,-1.00643455982208,-0.87597656250000,-0.70019531250000,-0.62402343750000,0
247,418419549,0.268713,0.276866,0.100808,0.917048,1.00000000000000,0.00010404270142,-0.00003995746374,-0.00007434003055,0.03889709711075,0.02900457382202,0.07109814882278,4.66797447204590,3.48273825645447,8.53120803833008,1.43074703216553,-0.54947656393051,-1.02228963375092,-0.87646484375000,-0.70312500000000,-0.62646484375000,0
248,418427882,0.268715,0.276858,0.100792,0.917051,1.00000000000000,0.00009985920042,-0.00003477931023,-0.00005784630775,0.03891783952713,0.02890074253082,0.07087874412537,4.67032670974731,3.46822714805603,8.50578784942627,1.37321746349335,-0.47826889157295,-0.79547566175461,-0.87841796875000,-0.70312500000000,-0.62744140625000,0
249,418436215,0.268718,0.276841,0.100777,0.917057,1.00000000000000,0.00009816791862,-0.00002400390804,-0.00005902908742,0.03903794288635,0.02858877182007,0.07096838951111,4.68474054336548,3.43078994750977,8.51654815673828,1.34995985031128,-0.33009064197540,-0.81174069643021,-0.87744140625000,-0.70312500000000,-0.62695312500000,0
250,418444548,0.268717,0.276833,0.100763,0.917061,1.00000000000000,0.00010304339230,-0.00003345031291,-0.00005409400910,0.03907650709152,0.02844059467316,0.07137012481689,4.68936872482300,3.41300797462463,8.56475830078125,1.41700518131256,-0.45999324321747,-0.74387574195862,-0.88037109375000,-0.70458984375000,-0.62402343750000,0
251,418452881,0.268722,0.276830,0.100761,0.917061,1.00000000000000,0.00011414103210,-0.00003627408296,-0.00006557907909,0.03899389505386,0.02857476472855,0.07109278440475,4.67958927154541,3.43115544319153,8.53057765960693,1.56961488723755,-0.49882441759109,-0.90181326866150,-0.87988281250000,-0.70214843750000,-0.62451171875000,0
252,418461214,0.268730,0.276824,0.100750,0.917062,1.00000000000000,0.00010345596820,-0.00003581307828,-0.00006395950913,0.03888654708862,0.02870768308640,0.07098621129990,4.66672849655151,3.44724607467651,8.51771354675293,1.42267858982086,-0.49248486757278,-0.87954157590866,-0.87841796875000,-0.70263671875000,-0.62500000000000,0
253,418469547,0.268732,0.276825,0.100734,0.917063,1.00000000000000,0.00010380987078,-0.00004316493869,-0.00005780346692,0.03890866041183,0.02874541282654,0.07120466232300,4.66954135894775,3.45174503326416,8.54385757446289,1.42754554748535,-0.59358429908752,-0.79488658905029,-0.87939453125000,-0.69873046875000,-0.62695312500000,0
254,418477880,0.268727,0.276821,0.100719,0.917067,1.00000000000000,0.00010272208601,-0.00003632158041,-0.00005035288632,0.03896600008011,0.02842164039612,0.07084876298904,4.67610692977905,3.41073298454285,8.50219058990479,1.41258656978607,-0.49947753548622,-0.69242954254150,-0.88281250000000,-0.69970703125000,-0.62548828125000,0
255,418486213,0.268731,0.276822,0.100703,0.917067,1.00000000000000,0.00010371953249,-0.00004325900227,-0.00006010103971,0.03907901048660,0.02858322858810,0.07117211818695,4.68996858596802,3.43226766586304,8.53997135162354,1.42630302906036,-0.59487777948380,-0.82648169994354,-0.87597656250000,-0.70361328125000,-0.62402343750000,0
256,418494546,0.268731,0.276828,0.100695,0.917066,1.00000000000000,0.00011182948947,-0.00004576239735,-0.00005704816431,0.03891009092331,0.02845114469528,0.07097536325455,4.66972255706787,3.41630840301514,8.51638984680176,1.53782749176025,-0.62930339574814,-0.78449994325638,-0.87841796875000,-0.70166015625000,-0.62597656250000,0
257,418502879,0.268742,0.276835,0.100689,0.917062,1.00000000000000,0.00011206045747,-0.00004855543375,-0.00006841681898,0.03890049457550,0.02840727567673,0.07119315862656,4.66852188110352,3.41095113754272,8.54259395599365,1.54100358486176,-0.66771191358566,-0.94083648920059,-0.88085937500000,-0.70654296875000,-0.62695312500000,0
258,418511212,0.268750,0.276832,0.100691,0.917060,1.00000000000000,0.00011666771024,-0.00003578327596,-0.00006825476885,0.03907722234726,0.02878254652023,0.07084649801254,4.68955802917480,3.45604300498962,8.50104904174805,1.60436034202576,-0.49207505583763,-0.93860805034637,-0.87841796875000,-0.70214843750000,-0.62792968750000,0
259,418519545,0.268757,0.276828,0.100675,0.917061,1.00000000000000,0.00010130275041,-0.00003861635923,-0.00006275810301,0.03888612985611,0.02868366241455,0.07064610719681,4.66673278808594,3.44436383247375,8.47686481475830,1.39306855201721,-0.53103429079056,-0.86302042007446,-0.88037109375000,-0.70068359375000,-0.62451171875000,0
260,418527878,0.268760,0.276825,0.100664,0.917062,1.00000000000000,0.00010583363473,-0.00003823172301,-0.00005974899977,0.03877478837967,0.02883231639862,0.07090461254120,4.65337800979614,3.46217989921570,8.50789356231689,1.45537507534027,-0.52574497461319,-0.82164067029953,-0.88134765625000,-0.70507812500000,-0.62255859375000,0
261,418536211,0.268759,0.276825,0.100635,0.917066,1.00000000000000,0.00009066797793,-0.00004408415407,-0.00005081389099,0.03882312774658,0.02874004840851,0.07133698463440,4.65896177291870,3.44894385337830,8.56078147888184,1.24682390689850,-0.60622483491898,-0.69876915216446,-0.87841796875000,-0.70117187500000,-0.62548828125000,0
262,418544544,0.268766,0.276825,0.100609,0.917066,1.00000000000000,0.00009210873395,-0.00004606321454,-0.00005876645446,0.03887540102005,0.02858316898346,0.07111358642578,4.66523408889771,3.43011689186096,8.53396987915039,1.26663672924042,-0.63344001770020,-0.80812913179398,-0.87695312500000,-0.70312500000000,-0.62451171875000,0
263,418552877,0.268770,0.276827,0.100583,0.917067,1.00000000000000,0.00009462703019,-0.00004637800157,-0.00005676224828,0.03895682096481,0.02850979566574,0.07110190391541,4.67500495910645,3.42131209373474,8.53256893157959,1.30126714706421,-0.63776880502701,-0.78056818246841,-0.88085937500000,-0.70117187500000,-0.62548828125000,0
264,418561210,0.268775,0.276829,0.100566,0.917067,1.00000000000000,0.00010070018470,-0.00004537496716,-0.00005934853107,0.03889459371567,0.02838927507401,0.07093191146851,4.66788625717163,3.40899920463562,8.51111698150635,1.38478231430054,-0.62397557497025,-0.81613355875015,-0.87841796875000,-0.70410156250000,-0.62597656250000,0
265,418569543,0.268784,0.276841,0.100551,0.917063,1.00000000000000,0.00010561756790,-0.00005417782813,-0.00006483215839,0.03894549608231,0.02853250503540,0.07087737321854,4.67403507232666,3.42599415779114,8.50462341308594,1.45240390300751,-0.74502837657928,-0.89154183864594,-0.87695312500000,-0.70410156250000,-0.62841796875000,0
266,418577876,0.268794,0.276841,0.100540,0.917061,1.00000000000000,0.00010581035167,-0.00004277378321,-0.00006605312228,0.03895527124405,0.02844828367233,0.07084429264069,4.67505550384521,3.41600155830383,8.50069236755371,1.45505499839783,-0.58820527791977,-0.90833193063736,-0.87939453125000,-0.70312500000000,-0.62695312500000,0
267,418586209,0.268806,0.276850,0.100532,0.917056,1.00000000000000,0.00011041108519,-0.00005033425987,-0.00006942264736,0.03889018297195,0.02850371599197,0.07112735509872,4.66730117797852,3.42251372337341,8.53468894958496,1.51832199096680,-0.69217342138290,-0.95466816425323,-0.87792968750000,-0.70117187500000,-0.62841796875000,0
268,418594542,0.268809,0.276858,0.100527,0.917053,1.00000000000000,0.00011477619410,-0.00004834961146,-0.00006206613034,0.03895914554596,0.02869051694870,0.07081443071365,4.67558717727661,3.44494724273682,8.49711418151855,1.57834911346436,-0.66488152742386,-0.85350477695465,-0.87841796875000,-0.69970703125000,-0.62402343750000,0
269,418602875,0.268814,0.276866,0.100509,0.917051,1.00000000000000,0.00010239332914,-0.00005062948912,-0.00005936715752,0.03896009922028,0.02852708101273,0.07091182470322,4.67580699920654,3.42545199394226,8.50870132446289,1.40806555747986,-0.69623327255249,-0.81638967990875,-0.87548828125000,-0.70068359375000,-0.62597656250000,0
270,418611208,0.268822,0.276872,0.100499,0.917048,1.00000000000000,0.00010828860104,-0.00004835892469,-0.00006501097232,0.03904354572296,0.02839976549149,0.07074391841888,4.68572044372559,3.41010212898254,8.48863792419434,1.48913466930389,-0.66500955820084,-0.89400082826614,-0.87988281250000,-0.70019531250000,-0.62744140625000,0
271,418619541,0.268825,0.276878,0.100484,0.917047,1.00000000000000,0.00010580662638,-0.00004726089537,-0.00005808286369,0.03902465105057,0.02872025966644,0.07109540700912,4.68350458145142,3.44865202903748,8.53074932098389,1.45500385761261,-0.64991003274918,-0.79872870445251,-0.87988281250000,-0.70117187500000,-0.62646484375000,0
272,418627874,0.268822,0.276874,0.100464,0.917051,1.00000000000000,0.00009857583791,-0.00003775954247,-0.00005070306361,0.03868508338928,0.02867996692657,0.07099324464798,4.64239549636841,3.44173336029053,8.51952934265137,1.35556936264038,-0.51925182342529,-0.69724506139755,-0.88085937500000,-0.70263671875000,-0.62792968750000,0
273,418636207,0.268819,0.276876,0.100446,0.917053,1.00000000000000,0.00010303128511,-0.00004334375262,-0.00005201436579,0.03871375322342,0.02861553430557,0.07115525007248,4.64621114730835,3.43620014190674,8.53788280487061,1.41683852672577,-0.59604322910309,-0.71527749300003,-0.88085937500000,-0.70263671875000,-0.62207031250000,0
274,418644540,0.268814,0.276873,0.100440,0.917056,1.00000000000000,0.00011273380369,-0.00003600865602,-0.00005324929953,0.03909963369370,0.02849030494690,0.07107645273209,4.69236469268799,3.42111682891846,8.52853393554688,1.55026304721832,-0.49517437815666,-0.73225980997086,-0.88134765625000,-0.70458984375000,-0.62597656250000,0
275,418652873,0.268816,0.276871,0.100437,0.917057,1.00000000000000,0.00011372659355,-0.00003705918789,-0.00006107985973,0.03916782140732,0.02848541736603,0.07124149799347,4.70050525665283,3.42046761512756,8.54839229583740,1.56391549110413,-0.50962078571320,-0.83994191884995,-0.87695312500000,-0.70166015625000,-0.62597656250000,0
276,418661206,0.268824,0.276872,0.100432,0.917054,1.00000000000000,0.00011166092008,-0.00004177726805,-0.00006710179150,0.03893440961838,0.02856552600861,0.07103055715561,4.67251634597778,3.43001508712769,8.52308654785156,1.53550910949707,-0.57450169324875,-0.92275279760361,-0.87792968750000,-0.70263671875000,-0.62744140625000,0
277,418669539,0.268835,0.276867,0.100420,0.917054,1.00000000000000,0.00010316725820,-0.00003697350621,-0.00006686709821,0.03888660669327,0.02856570482254,0.07087665796280,4.66673326492310,3.43017220497131,8.50458717346191,1.41870844364166,-0.50844252109528,-0.91952544450760,-0.87695312500000,-0.70410156250000,-0.62500000000000,0
278,418677872,0.268846,0.276860,0.100404,0.917055,1.00000000000000,0.00009795557708,-0.00003709457815,-0.00006627663970,0.03897595405579,0.02862197160721,0.07099199295044,4.67747259140015,3.43699383735657,8.51839065551758,1.34703981876373,-0.51010745763779,-0.91140574216843,-0.87841796875000,-0.70019531250000,-0.62548828125000,0
279,418686205,0.268855,0.276850,0.100389,0.917057,1.00000000000000,0.00009895581752,-0.00003324262798,-0.00006542913616,0.03882759809494,0.02863395214081,0.07100725173950,4.65961170196533,3.43846535682678,8.52023792266846,1.36079466342926,-0.45713731646538,-0.89975130558014,-0.87744140625000,-0.70166015625000,-0.62646484375000,0
280,418694538,0.268868,0.276851,0.100371,0.917055,1.00000000000000,0.00009828712791,-0.00004491209984,-0.00006741844118,0.03881067037582,0.02848017215729,0.07104009389877,4.65774631500244,3.41987323760986,8.52414989471436,1.35159909725189,-0.61761051416397,-0.92710739374161,-0.88134765625000,-0.70410156250000,-0.62597656250000,0
281,418702871,0.268876,0.276854,0.100354,0.917054,1.00000000000000,0.00010105315596,-0.00004614144564,-0.00006226077676,0.03890705108643,0.02857100963593,0.07073312997818,4.66935968399048,3.43076848983765,8.48728179931641,1.38963651657104,-0.63451582193375,-0.85618150234222,-0.88037109375000,-0.70312500000000,-0.62597656250000,0
282,418711204,0.268883,0.276846,0.100335,0.917056,1.00000000000000,0.00009660515934,-0.00003626383841,-0.00006190873682,0.03902518749237,0.02856063842773,0.07120460271835,4.68320941925049,3.42741346359253,8.54489326477051,1.32846951484680,-0.49868360161781,-0.85134029388428,-0.87890625000000,-0.70117187500000,-0.62744140625000,0
283,418719537,0.268887,0.276845,0.100327,0.917056,1.00000000000000,0.00010919850320,-0.00003880448639,-0.00006191059947,0.03877812623978,0.02864068746567,0.07102960348129,4.65376520156860,3.43912434577942,8.52293395996094,1.50164735317230,-0.53362131118774,-0.85136592388153,-0.87841796875000,-0.70312500000000,-0.62402343750000,0
284,418727870,0.268893,0.276841,0.100311,0.917057,1.00000000000000,0.00009989831597,-0.00003978423774,-0.00006115250289,0.03902006149292,0.02875965833664,0.07106328010559,4.68284416198730,3.45351409912109,8.52690124511719,1.37375557422638,-0.54709446430206,-0.84094089269638,-0.87841796875000,-0.70068359375000,-0.62646484375000,0
285,418736203,0.268889,0.276838,0.100278,0.917063,1.00000000000000,0.00008818786591,-0.00004094466567,-0.00004613958299,0.03916639089584,0.02838551998138,0.07087492942810,4.70015478134155,3.40639829635620,8.50533103942871,1.21271872520447,-0.56305211782455,-0.63449019193649,-0.87695312500000,-0.70019531250000,-0.62548828125000,0
286,418744536,0.268891,0.276829,0.100259,0.917067,1.00000000000000,0.00009668525308,-0.00003437697887,-0.00005557760596,0.03900676965714,0.02862465381622,0.07105338573456,4.68099927902222,3.43509554862976,8.52674674987793,1.32957077026367,-0.47273623943329,-0.76427745819092,-0.87744140625000,-0.70166015625000,-0.62597656250000,0
287,418752869,0.268889,0.276827,0.100241,0.917070,1.00000000000000,0.00010171439499,-0.00003922730684,-0.00005401484668,0.03914719820023,0.02873611450195,0.07080250978470,4.69785118103027,3.44847130775452,8.49664020538330,1.39872932434082,-0.53943574428558,-0.74278718233109,-0.88134765625000,-0.70068359375000,-0.62597656250000,0
288,418761202,0.268888,0.276824,0.100221,0.917073,1.00000000000000,0.00009898375720,-0.00004003383219,-0.00005228817463,0.03902024030685,0.02858060598373,0.07118707895279,4.68261575698853,3.42980957031250,8.54279041290283,1.36117875576019,-0.55052673816681,-0.71904277801514,-0.88037109375000,-0.70166015625000,-0.62744140625000,0
289,418769535,0.268884,0.276833,0.100198,0.917075,1.00000000000000,0.00009978841990,-0.00005122646689,-0.00004929862916,0.03904008865356,0.02857881784439,0.07104605436325,4.68552923202515,3.43174290657043,8.52471256256104,1.37224411964417,-0.70444267988205,-0.67793190479279,-0.87792968750000,-0.70019531250000,-0.62451171875000,0
290,418777868,0.268886,0.276835,0.100179,0.917075,1.00000000000000,0.00010093394667,-0.00004523620009,-0.00005631893873,0.03891068696976,0.02860695123672,0.07093113660812,4.66983985900879,3.43514180183411,8.51099777221680,1.38799691200256,-0.62206727266312,-0.77447187900543,-0.88037109375000,-0.70263671875000,-0.62548828125000,0
291,418786201,0.268889,0.276832,0.100160,0.917077,1.00000000000000,0.00009898189455,-0.00003998726606,-0.00005793012679,0.03886830806732,0.02854335308075,0.07099181413651,4.66438341140747,3.42533922195435,8.51935768127441,1.36115324497223,-0.54988634586334,-0.79662829637527,-0.88037109375000,-0.70117187500000,-0.62792968750000,0
292,418794534,0.268886,0.276831,0.100140,0.917081,1.00000000000000,0.00009915791452,-0.00004075560719,-0.00005070585757,0.03907984495163,0.02860456705093,0.07116574048996,4.68976879119873,3.43268513679504,8.54022979736328,1.36357378959656,-0.56045228242874,-0.69728350639343,-0.87988281250000,-0.70312500000000,-0.62939453125000,0
293,418802867,0.268882,0.276831,0.100116,0.917084,1.00000000000000,0.00009758677334,-0.00004275515676,-0.00004915893078,0.03909718990326,0.02851605415344,0.07101106643677,4.69185018539429,3.42206311225891,8.52166843414307,1.34196829795837,-0.58794921636581,-0.67601096630096,-0.88085937500000,-0.70214843750000,-0.62695312500000,0
294,418811200,0.268888,0.276828,0.100092,0.917086,1.00000000000000,0.00009242538363,-0.00004127621651,-0.00005806796253,0.03895670175552,0.02835583686829,0.07089602947235,4.67499017715454,3.40283608436584,8.50786209106445,1.27099108695984,-0.56761139631271,-0.79852372407913,-0.88037109375000,-0.70068359375000,-0.62792968750000,0
295,418819533,0.268896,0.276829,0.100066,0.917087,1.00000000000000,0.00009294133633,-0.00004645437002,-0.00006023049355,0.03893309831619,0.02837032079697,0.07130569219589,4.67215824127197,3.40457439422607,8.55702495574951,1.27808630466461,-0.63881909847260,-0.82826197147369,-0.87988281250000,-0.70068359375000,-0.62597656250000,0
296,418827866,0.268908,0.276830,0.100054,0.917084,1.00000000000000,0.00010408740491,-0.00004406273365,-0.00006837025285,0.03896862268448,0.02833443880081,0.07081234455109,4.67666387557983,3.40232491493225,8.49686431884766,1.43136191368103,-0.60593032836914,-0.94019603729248,-0.87744140625000,-0.69921875000000,-0.62841796875000,0
297,418836199,0.268919,0.276830,0.100044,0.917082,1.00000000000000,0.00010559055954,-0.00004216842353,-0.00006855465472,0.03895920515060,0.02861404418945,0.07107031345367,4.67550086975098,3.43588685989380,8.52783203125000,1.45203244686127,-0.57988065481186,-0.94273185729980,-0.88085937500000,-0.70068359375000,-0.62548828125000,0
298,418844532,0.268922,0.276826,0.100036,0.917083,1.00000000000000,0.00010884273797,-0.00003634952009,-0.00006095692515,0.03884774446487,0.02848690748215,0.07097721099854,4.66209411621094,3.42070341110229,8.51665019989014,1.49675500392914,-0.49986180663109,-0.83825141191483,-0.87890625000000,-0.70263671875000,-0.62500000000000,0
299,418852865,0.268927,0.276825,0.100024,0.917083,1.00000000000000,0.00010575074703,-0.00004040822387,-0.00006088428199,0.03909105062485,0.02846795320511,0.07086265087128,4.69135761260986,3.41842794418335,8.50286388397217,1.45423543453217,-0.55567520856857,-0.83725255727768,-0.87646484375000,-0.70410156250000,-0.62207031250000,0
300,418861198,0.268932,0.276830,0.100011,0.917082,1.00000000000000,0.00010538194329,-0.00004715472460,-0.00006034784019,0.03896594047546,0.02838426828384,0.07107484340668,4.67644548416138,3.40832257270813,8.52830505371094,1.44916367530823,-0.64844995737076,-0.82987564802170,-0.88183593750000,-0.70214843750000,-0.62402343750000,0
301,418869531,0.268937,0.276838,0.099998,0.917079,1.00000000000000,0.00010767299682,-0.00005038641393,-0.00006218254566,0.03900325298309,0.02832287549973,0.07107841968536,4.68093872070312,3.40088343620300,8.52875423431396,1.48066949844360,-0.69289076328278,-0.85510569810867,-0.87841796875000,-0.70263671875000,-0.62695312500000,0
302,418877864,0.268940,0.276841,0.099984,0.917079,1.00000000000000,0.00010459031910,-0.00004449300468,-0.00005799531937,0.03892743587494,0.02838253974915,0.07084769010544,4.67180871963501,3.40816402435303,8.50102806091309,1.43827784061432,-0.61184722185135,-0.79752486944199,-0.88134765625000,-0.70361328125000,-0.62744140625000,0
303,418886197,0.268944,0.276846,0.099976,0.917077,1.00000000000000,0.00011171866208,-0.00004529953003,-0.00006256997585,0.03901779651642,0.02857488393784,0.07114368677139,4.68260049819946,3.43113708496094,8.53662204742432,1.53630363941193,-0.62293821573257,-0.86043345928192,-0.88330078125000,-0.70214843750000,-0.62744140625000,0
304,418894530,0.268946,0.276845,0.099962,0.917078,1.00000000000000,0.00010402034968,-0.00004092231393,-0.00005727261305,0.03908842802048,0.02851539850235,0.07115310430527,4.69108772277832,3.42416954040527,8.53767681121826,1.43043971061707,-0.56274473667145,-0.78758645057678,-0.87792968750000,-0.70117187500000,-0.62304687500000,0
305,418902863,0.268952,0.276840,0.099951,0.917079,1.00000000000000,0.00010499171913,-0.00003671739250,-0.00006276648492,0.03923153877258,0.02864748239517,0.07080644369125,4.70814800262451,3.44000506401062,8.49613666534424,1.44379770755768,-0.50492060184479,-0.86313575506210,-0.87744140625000,-0.70263671875000,-0.62744140625000,0
306,418911196,0.268974,0.276825,0.099930,0.917080,1.00000000000000,0.00008837692440,-0.00003195460886,-0.00007534306496,0.03897732496262,0.02858555316925,0.07092165946960,4.67746591567993,3.43040323257446,8.51093864440918,1.21531856060028,-0.43942499160767,-1.03608298301697,-0.88037109375000,-0.70214843750000,-0.62744140625000,0
307,418919529,0.268985,0.276811,0.099902,0.917084,1.00000000000000,0.00008543394506,-0.00003199744970,-0.00006383750588,0.03891044855118,0.02848857641220,0.07083868980408,4.66944026947021,3.41876578330994,8.50098228454590,1.17484819889069,-0.44001412391663,-0.87786382436752,-0.88085937500000,-0.69873046875000,-0.62695312500000,0
308,418927862,0.268992,0.276809,0.099890,0.917084,1.00000000000000,0.00010446272790,-0.00004001986235,-0.00006317812949,0.03884601593018,0.02815163135529,0.07101142406464,4.66193819046021,3.38046979904175,8.52073764801025,1.43652296066284,-0.55033457279205,-0.86879640817642,-0.87988281250000,-0.70361328125000,-0.62792968750000,0
309,418936195,0.268999,0.276807,0.099881,0.917083,1.00000000000000,0.00010751653463,-0.00003931671381,-0.00006428919733,0.03899115324020,0.02855813503265,0.07108271121979,4.67932415008545,3.42921924591064,8.52931213378906,1.47851788997650,-0.54066532850266,-0.88407534360886,-0.87939453125000,-0.70214843750000,-0.62451171875000,0
310,418944528,0.269007,0.276797,0.099868,0.917085,1.00000000000000,0.00010035093874,-0.00003300793469,-0.00006462447345,0.03871351480484,0.02840888500214,0.07110953330994,4.64592647552490,3.41145038604736,8.53252220153809,1.37997972965240,-0.45390984416008,-0.88868582248688,-0.88037109375000,-0.70117187500000,-0.62548828125000,0
311,418952861,0.269025,0.276796,0.099856,0.917082,1.00000000000000,0.00010239612311,-0.00004214979708,-0.00007412023842,0.03905367851257,0.02827286720276,0.07092934846878,4.68680858612061,3.39492607116699,8.51094818115234,1.40810418128967,-0.57962447404861,-1.01926720142365,-0.87841796875000,-0.69970703125000,-0.62304687500000,0
312,418961194,0.269034,0.276790,0.099846,0.917082,1.00000000000000,0.00010447949171,-0.00003572087735,-0.00006600935012,0.03896409273148,0.02830499410629,0.07096475362778,4.67602157592773,3.39889311790466,8.51517009735107,1.43675351142883,-0.49121689796448,-0.90773004293442,-0.87939453125000,-0.70214843750000,-0.62695312500000,0
313,418969527,0.269056,0.276783,0.099826,0.917080,1.00000000000000,0.00009305588901,-0.00003992859274,-0.00007587578148,0.03895342350006,0.02857834100723,0.07098919153214,4.67474555969238,3.43167376518250,8.51810169219971,1.27966165542603,-0.54907953739166,-1.04340875148773,-0.88183593750000,-0.70117187500000,-0.62402343750000,0
314,418977860,0.269073,0.276771,0.099806,0.917080,1.00000000000000,0.00009065307677,-0.00003375951201,-0.00007134955376,0.03882652521133,0.02859854698181,0.07131320238113,4.65936899185181,3.43196272850037,8.55792617797852,1.24661922454834,-0.46424520015717,-0.98116618394852,-0.87353515625000,-0.70410156250000,-0.62695312500000,0
315,418986193,0.269099,0.276766,0.099778,0.917077,1.00000000000000,0.00008466467261,-0.00004433561116,-0.00007802899927,0.03893840312958,0.02844321727753,0.07101529836655,4.67301368713379,3.41544914245605,8.52120494842529,1.16426932811737,-0.60968279838562,-1.07301867008209,-0.87939453125000,-0.70214843750000,-0.62548828125000,0
316,418994526,0.269121,0.276756,0.099752,0.917077,1.00000000000000,0.00008499156684,-0.00003777258098,-0.00007371045649,0.03886711597443,0.02846974134445,0.07110559940338,4.66423988342285,3.41650509834290,8.53301143646240,1.16876471042633,-0.51943099498749,-1.01363193988800,-0.88232421875000,-0.70117187500000,-0.62890625000000,0
317,419002859,0.269148,0.276742,0.099732,0.917075,1.00000000000000,0.00008897390217,-0.00003384239972,-0.00008134916425,0.03889948129654,0.02852821350098,0.07107263803482,4.66814279556274,3.42568612098694,8.52817630767822,1.22352802753448,-0.46538513898849,-1.11867630481720,-0.87744140625000,-0.70117187500000,-0.62744140625000,0
318,419011192,0.269172,0.276738,0.099698,0.917073,1.00000000000000,0.00007932726294,-0.00004580430686,-0.00007288157940,0.03888034820557,0.02823346853256,0.07090514898300,4.66582822799683,3.38815140724182,8.50895786285400,1.09087181091309,-0.62987965345383,-1.00223374366760,-0.88085937500000,-0.70556640625000,-0.62890625000000,0
319,419019525,0.269192,0.276733,0.099699,0.917069,1.00000000000000,0.00011224020272,-0.00003639981151,-0.00008160434663,0.03890633583069,0.02819967269897,0.07108426094055,4.66899633407593,3.38603401184082,8.52965545654297,1.54347550868988,-0.50055342912674,-1.12218523025513,-0.88183593750000,-0.70312500000000,-0.62402343750000,0
320,419027858,0.269216,0.276725,0.099699,0.917064,1.00000000000000,0.00010986812413,-0.00003396626562,-0.00008326116949,0.03902637958527,0.02863252162933,0.07116371393204,4.68335819244385,3.43800354003906,8.53919315338135,1.51085555553436,-0.46708837151527,-1.14496910572052,-0.87646484375000,-0.69824218750000,-0.62451171875000,0
321,419036191,0.269236,0.276722,0.099692,0.917060,1.00000000000000,0.00010509602726,-0.00004035700113,-0.00007895100862,0.03893727064133,0.02881747484207,0.07077234983444,4.67276859283447,3.46022319793701,8.49215126037598,1.44523191452026,-0.55497086048126,-1.08569788932800,-0.88037109375000,-0.70068359375000,-0.62597656250000,0
322,419044524,0.269257,0.276717,0.099683,0.917056,1.00000000000000,0.00010330788791,-0.00003903452307,-0.00007786694914,0.03891718387604,0.02865111827850,0.07083213329315,4.67035245895386,3.44029831886292,8.49931812286377,1.42064225673676,-0.53678470849991,-1.07079017162323,-0.88085937500000,-0.70117187500000,-0.62646484375000,0
323,419052857,0.269268,0.276704,0.099667,0.917058,1.00000000000000,0.00009671878070,-0.00003041513264,-0.00006725080311,0.03894948959351,0.02856904268265,0.07121175527573,4.67412519454956,3.42842197418213,8.54575157165527,1.33003175258636,-0.41825479269028,-0.92480194568634,-0.87744140625000,-0.69775390625000,-0.62597656250000,0
324,419061190,0.269281,0.276683,0.099639,0.917064,1.00000000000000,0.00008191447705,-0.00002594105899,-0.00006361305714,0.03878927230835,0.02838522195816,0.07124167680740,4.65489912033081,3.40636277198792,8.54934215545654,1.12644994258881,-0.35672944784164,-0.87477731704712,-0.87548828125000,-0.70117187500000,-0.62744140625000,0
325,419069523,0.269290,0.276676,0.099627,0.917065,1.00000000000000,0.00010382849723,-0.00003560073674,-0.00006634183228,0.03889435529709,0.02835202217102,0.07111871242523,4.66765022277832,3.40454506874084,8.53364467620850,1.42780148983002,-0.48956486582756,-0.91230219602585,-0.87890625000000,-0.69970703125000,-0.62792968750000,0
326,419077856,0.269299,0.276666,0.099613,0.917067,1.00000000000000,0.00009922590107,-0.00003257580101,-0.00006437115371,0.03882569074631,0.02859103679657,0.07123750448227,4.65938282012939,3.43333506584167,8.54786682128906,1.36450874805450,-0.44796735048294,-0.88520228862762,-0.87939453125000,-0.70166015625000,-0.62402343750000,0
327,419086189,0.269315,0.276659,0.099595,0.917066,1.00000000000000,0.00009481329471,-0.00003786385059,-0.00007132068276,0.03905540704727,0.02832174301147,0.07119476795197,4.68699121475220,3.40094375610352,8.54275321960449,1.30382859706879,-0.52068614959717,-0.98076897859573,-0.87792968750000,-0.70068359375000,-0.62402343750000,0
328,419094522,0.269326,0.276658,0.099594,0.917063,1.00000000000000,0.00011419784278,-0.00003951415420,-0.00007016584277,0.03890782594681,0.02812933921814,0.07092225551605,4.66927719116211,3.37763881683350,8.51014041900635,1.57039582729340,-0.54338032007217,-0.96488821506500,-0.88134765625000,-0.70019531250000,-0.62744140625000,0
329,419102855,0.269336,0.276660,0.099594,0.917060,1.00000000000000,0.00011646840721,-0.00004136376083,-0.00007010996342,0.03886300325394,0.02860134840012,0.07071405649185,4.66390895843506,3.43424034118652,8.48515129089355,1.60161960124969,-0.56881529092789,-0.96411973237991,-0.88037109375000,-0.70117187500000,-0.63085937500000,0
330,419111188,0.269345,0.276648,0.099589,0.917061,1.00000000000000,0.00010717846453,-0.00002899207175,-0.00006810575724,0.03893619775772,0.02825874090195,0.07102483510971,4.67255878448486,3.39334845542908,8.52244472503662,1.47386872768402,-0.39868557453156,-0.93655896186829,-0.87548828125000,-0.69921875000000,-0.62695312500000,0
331,419119521,0.269360,0.276639,0.099588,0.917060,1.00000000000000,0.00011131633073,-0.00003174133599,-0.00007491372526,0.03901654481888,0.02845931053162,0.07116395235062,4.68219614028931,3.41729402542114,8.53918647766113,1.53077077865601,-0.43649214506149,-1.03017902374268,-0.87841796875000,-0.70019531250000,-0.62695312500000,0
332,419127854,0.269377,0.276630,0.099583,0.917058,1.00000000000000,0.00010581407696,-0.00003293901682,-0.00007574446499,0.03905069828033,0.02836781740189,0.07109808921814,4.68630886077881,3.40635418891907,8.53125953674316,1.45510625839233,-0.45296210050583,-1.04160284996033,-0.87890625000000,-0.69921875000000,-0.62695312500000,0
333,419136187,0.269390,0.276624,0.099574,0.917057,1.00000000000000,0.00010544527322,-0.00003670714796,-0.00007085502148,0.03887528181076,0.02839940786362,0.07110238075256,4.66534280776978,3.41016221046448,8.53172302246094,1.45003461837769,-0.50477975606918,-0.97436553239822,-0.88183593750000,-0.70117187500000,-0.62597656250000,0
334,419144520,0.269406,0.276609,0.099571,0.917057,1.00000000000000,0.00010595563799,-0.00002692081034,-0.00007484853268,0.03891462087631,0.02829700708389,0.07117265462875,4.66989946365356,3.39790654182434,8.54023551940918,1.45705306529999,-0.37020257115364,-1.02928256988525,-0.87939453125000,-0.70214843750000,-0.62207031250000,0
335,419152853,0.269423,0.276593,0.099567,0.917057,1.00000000000000,0.00010549370199,-0.00002508796751,-0.00007663294673,0.03911525011063,0.02835839986801,0.07123661041260,4.69393825531006,3.40527606010437,8.54792785644531,1.45070064067841,-0.34499812126160,-1.05382084846497,-0.87597656250000,-0.70214843750000,-0.62841796875000,0
336,419161186,0.269439,0.276591,0.099567,0.917053,1.00000000000000,0.00011363904923,-0.00003898143768,-0.00007541291416,0.03890866041183,0.02829176187515,0.07111233472824,4.66933917999268,3.39710474014282,8.53297996520996,1.56271159648895,-0.53605473041534,-1.03704357147217,-0.87695312500000,-0.70068359375000,-0.62841796875000,0
337,419169519,0.269455,0.276588,0.099576,0.917049,1.00000000000000,0.00012166332453,-0.00003505498171,-0.00007906556129,0.03867280483246,0.02847075462341,0.07104587554932,4.64096021652222,3.41850495338440,8.52507209777832,1.67305779457092,-0.48205986618996,-1.08727312088013,-0.87500000000000,-0.69775390625000,-0.62792968750000,0
338,419177852,0.269480,0.276593,0.099579,0.917039,1.00000000000000,0.00011625420302,-0.00004726462066,-0.00008575804532,0.03889107704163,0.02835488319397,0.07092398405075,4.66725730895996,3.40451431274414,8.51042270660400,1.59867393970490,-0.64996117353439,-1.17930483818054,-0.87988281250000,-0.70263671875000,-0.62890625000000,0
339,419186185,0.269504,0.276609,0.099589,0.917026,1.00000000000000,0.00012599956244,-0.00005536340177,-0.00008758530021,0.03897482156754,0.02839481830597,0.07107669115067,4.67736005783081,3.40917682647705,8.52877426147461,1.73268783092499,-0.76133191585541,-1.20443272590637,-0.88134765625000,-0.70312500000000,-0.62695312500000,0
340,419194518,0.269522,0.276619,0.099601,0.917017,1.00000000000000,0.00012701842934,-0.00004815123975,-0.00008058734238,0.03900235891342,0.02848643064499,0.07075428962708,4.68062925338745,3.42024707794189,8.49006557464600,1.74669861793518,-0.66215354204178,-1.10819983482361,-0.87988281250000,-0.69873046875000,-0.63037109375000,0
341,419202851,0.269545,0.276627,0.099605,0.917007,1.00000000000000,0.00011874269694,-0.00004965625703,-0.00008431635797,0.03902250528336,0.02870130538940,0.07088601589203,4.68305349349976,3.44606304168701,8.50585365295410,1.63289475440979,-0.68284994363785,-1.15947949886322,-0.87792968750000,-0.70019531250000,-0.62597656250000,0
342,419211184,0.269565,0.276622,0.099605,0.917002,1.00000000000000,0.00011095684022,-0.00003707967699,-0.00008047744632,0.03892815113068,0.02852958440781,0.07110434770584,4.67162466049194,3.42564201354980,8.53204536437988,1.52582705020905,-0.50990253686905,-1.10668861865997,-0.87841796875000,-0.69970703125000,-0.62841796875000,0
343,419219517,0.269573,0.276617,0.099601,0.917002,1.00000000000000,0.00011112447828,-0.00003459118307,-0.00006697140634,0.03900957107544,0.02836853265762,0.07090204954147,4.68144512176514,3.40644073486328,8.50769329071045,1.52813255786896,-0.47568202018738,-0.92095988988876,-0.88085937500000,-0.70263671875000,-0.62890625000000,0
344,419227850,0.269588,0.276615,0.099604,0.916998,1.00000000000000,0.00011704210192,-0.00003744661808,-0.00007564574480,0.03885698318481,0.02859330177307,0.07110339403152,4.66310977935791,3.43326735496521,8.53192329406738,1.60950875282288,-0.51494854688644,-1.04024517536163,-0.88037109375000,-0.70068359375000,-0.62695312500000,0
345,419236183,0.269603,0.276617,0.099599,0.916994,1.00000000000000,0.00011008884758,-0.00004375725985,-0.00007373094559,0.03910523653030,0.02851867675781,0.07120263576508,4.69300174713135,3.42434716224670,8.54376697540283,1.51389074325562,-0.60172957181931,-1.01391375064850,-0.88134765625000,-0.70166015625000,-0.62744140625000,0
346,419244516,0.269623,0.276610,0.099586,0.916991,1.00000000000000,0.00009900983423,-0.00003846921027,-0.00007683597505,0.03890830278397,0.02834743261337,0.07105594873428,4.66929769515991,3.40391397476196,8.52615833282471,1.36153733730316,-0.52901077270508,-1.05661273002625,-0.88281250000000,-0.69921875000000,-0.62695312500000,0
347,419252849,0.269645,0.276606,0.099578,0.916987,1.00000000000000,0.00010357517749,-0.00003914348781,-0.00007954426110,0.03889513015747,0.02854388952255,0.07101869583130,4.66769933700562,3.42741370201111,8.52172088623047,1.42431795597076,-0.53828316926956,-1.09385585784912,-0.87695312500000,-0.70019531250000,-0.62304687500000,0
348,419261182,0.269668,0.276609,0.099565,0.916981,1.00000000000000,0.00010150764138,-0.00004833005369,-0.00007892400026,0.03877085447311,0.02843958139420,0.07111471891403,4.65291452407837,3.41483449935913,8.53320503234863,1.39588618278503,-0.66461259126663,-1.08532643318176,-0.87939453125000,-0.70263671875000,-0.62695312500000,0
349,419269515,0.269693,0.276607,0.099546,0.916976,1.00000000000000,0.00009361933917,-0.00004556030035,-0.00007922574878,0.03909999132156,0.02804666757584,0.07105326652527,4.69239759445190,3.36777138710022,8.52581024169922,1.28741002082825,-0.62652426958084,-1.08947587013245,-0.87841796875000,-0.70117187500000,-0.62841796875000,0
350,419277848,0.269722,0.276618,0.099546,0.916964,1.00000000000000,0.00011426396668,-0.00005352962762,-0.00008856784552,0.03906595706940,0.02794563770294,0.07095527648926,4.68830108642578,3.35535144805908,8.51417732238770,1.57130515575409,-0.73611474037170,-1.21794402599335,-0.88085937500000,-0.70361328125000,-0.62744140625000,0
351,419286181,0.269748,0.276629,0.099564,0.916951,1.00000000000000,0.00013091322035,-0.00004909560084,-0.00009201467037,0.03897362947464,0.02838474512100,0.07101684808731,4.67713403701782,3.40794992446899,8.52164268493652,1.80025792121887,-0.67513996362686,-1.26534330844879,-0.87939453125000,-0.70068359375000,-0.62646484375000,0
352,419294514,0.269779,0.276636,0.099574,0.916939,1.00000000000000,0.00012141000479,-0.00004830583930,-0.00009314343333,0.03899312019348,0.02853387594223,0.07104051113129,4.67946863174438,3.42590427398682,8.52445888519287,1.66957426071167,-0.66427958011627,-1.28086555004120,-0.88183593750000,-0.70068359375000,-0.62744140625000,0
353,419302847,0.269807,0.276633,0.099577,0.916931,1.00000000000000,0.00011418201029,-0.00003930460662,-0.00009000580758,0.03867435455322,0.02865201234818,0.07110112905502,4.64114189147949,3.44020795822144,8.53172111511230,1.57017838954926,-0.54049879312515,-1.23771846294403,-0.87744140625000,-0.70214843750000,-0.62744140625000,0
354,419311180,0.269830,0.276623,0.099587,0.916926,1.00000000000000,0.00011807680130,-0.00002979207784,-0.00008522812277,0.03890138864517,0.02868902683258,0.07094150781631,4.66829967498779,3.44471335411072,8.51258468627930,1.62373745441437,-0.40968689322472,-1.17201769351959,-0.87841796875000,-0.69970703125000,-0.62597656250000,0
355,419319513,0.269845,0.276618,0.099579,0.916925,1.00000000000000,0.00010517798364,-0.00003703776747,-0.00007263291627,0.03919398784637,0.02860426902771,0.07105946540833,4.70357799530029,3.43473362922668,8.52657508850098,1.44635903835297,-0.50932627916336,-0.99881434440613,-0.87792968750000,-0.70263671875000,-0.62402343750000,0
356,419327846,0.269858,0.276614,0.099570,0.916923,1.00000000000000,0.00010536238551,-0.00003905314952,-0.00007040519267,0.03887808322906,0.02850842475891,0.07090258598328,4.66571092605591,3.42322325706482,8.50772857666016,1.44889497756958,-0.53704088926315,-0.96817976236343,-0.87548828125000,-0.70214843750000,-0.62890625000000,0
357,419336179,0.269875,0.276611,0.099570,0.916919,1.00000000000000,0.00011269655079,-0.00003772601485,-0.00007792189717,0.03884273767471,0.02852267026901,0.07114750146866,4.66139650344849,3.42481303215027,8.53721237182617,1.54975080490112,-0.51879072189331,-1.07154595851898,-0.87939453125000,-0.69921875000000,-0.62744140625000,0
358,419344512,0.269891,0.276608,0.099560,0.916916,1.00000000000000,0.00010372977704,-0.00003982707858,-0.00007239542902,0.03907507658005,0.02851462364197,0.07108753919601,4.68935155868530,3.42396569252014,8.52992630004883,1.42644405364990,-0.54768359661102,-0.99554854631424,-0.87939453125000,-0.70166015625000,-0.62695312500000,0
359,419352845,0.269897,0.276603,0.099559,0.916916,1.00000000000000,0.00011468213052,-0.00003447011113,-0.00006618537009,0.03891849517822,0.02803462743759,0.07088673114777,4.67051839828491,3.36633491516113,8.50587654113770,1.57705569267273,-0.47401705384254,-0.91015058755875,-0.87792968750000,-0.70361328125000,-0.62548828125000,0
360,419361178,0.269913,0.276610,0.099575,0.916907,1.00000000000000,0.00013045594096,-0.00004408415407,-0.00008034054190,0.03892493247986,0.02833980321884,0.07131326198578,4.67129993438721,3.40266156196594,8.55717086791992,1.79396986961365,-0.60622495412827,-1.10480594635010,-0.87890625000000,-0.70361328125000,-0.62646484375000,0
361,419369511,0.269935,0.276608,0.099584,0.916900,1.00000000000000,0.00012132991105,-0.00003727898002,-0.00008499994874,0.03890603780746,0.02857518196106,0.07094055414200,4.66894388198853,3.43098473548889,8.51245307922363,1.66847300529480,-0.51264333724976,-1.16888010501862,-0.87988281250000,-0.70117187500000,-0.62451171875000,0
