sep=,
DeviceTag:,LH
FirmwareVersion:,3.0.0
AppVersion:,2023.6.0
StartTime: ,2025-02-11_12:17:11_000 EST
© Movella Technologies B. V. 2005-2025

PacketCounter,SampleTimeFine,Quat_W,Quat_X,Quat_Y,Quat_Z,dq_W,dq_X,dq_Y,dq_Z,dv[1],dv[2],dv[3],Acc_X,Acc_Y,Acc_Z,Gyr_X,Gyr_Y,Gyr_Z,Mag_X,Mag_Y,Mag_Z,Status
0,416369631,-0.631593,0.307417,0.574658,0.419957,0.00000000000000,0.00000000000000,0.00000000000000,0.00000000000000,0.00000000000000,0.00000000000000,0.00000000000000,0.00000000000000,0.00000000000000,0.00000000000000,0.00000000000000,0.00000000000000,0.00000000000000,-1.51660156250000,0.41064453125000,-0.39892578125000,0
1,416377964,-0.631557,0.307343,0.574747,0.419945,1.00000000000000,0.00005466956645,-0.00004500336945,-0.00009008497000,0.08192300796509,0.00813382863998,0.01244467496872,9.83115482330322,0.97609865665436,1.49342083930969,0.75179052352905,-0.61886548995972,-1.23880672454834,-1.51513671875000,0.41064453125000,-0.39941406250000,0
2,416386297,-0.631527,0.307279,0.574817,0.419938,1.00000000000000,0.00003995653242,-0.00003333948553,-0.00007937848568,0.08181411027908,0.00803393125534,0.01249259710312,9.81808567047119,0.96411025524139,1.49917149543762,0.54946374893188,-0.45846918225288,-1.09157621860504,-1.51464843750000,0.40869140625000,-0.40136718750000,0
3,416394630,-0.631501,0.307217,0.574872,0.419950,1.00000000000000,0.00002259481698,-0.00001501105726,-0.00008344464004,0.08201992511749,0.00777679681778,0.01239579916000,9.84278488159180,0.93325304985046,1.48755550384521,0.31071346998215,-0.20642513036728,-1.14749205112457,-1.51464843750000,0.40917968750000,-0.40136718750000,0
4,416402963,-0.631485,0.307136,0.574932,0.419951,1.00000000000000,0.00004593376070,-0.00000962987542,-0.00008518807590,0.08205854892731,0.00786912441254,0.01253944635391,9.84741973876953,0.94433259963989,1.50479352474213,0.63165980577469,-0.13242559134960,-1.17146694660187,-1.51904296875000,0.41015625000000,-0.39746093750000,0
5,416411296,-0.631478,0.307056,0.574981,0.419951,1.00000000000000,0.00004396308213,0.00000311713666,-0.00007690116763,0.08228421211243,0.00827193260193,0.01256155967712,9.87449932098389,0.99267154932022,1.50744736194611,0.60455995798111,0.04286542162299,-1.05750918388367,-1.51708984375000,0.40966796875000,-0.40087890625000,0
6,416419629,-0.631477,0.306990,0.575011,0.419961,1.00000000000000,0.00002331752330,0.00001440662891,-0.00006667338312,0.08220791816711,0.00769501924515,0.01263457536697,9.86534500122070,0.92343926429749,1.51620984077454,0.32065179944038,0.19811327755451,-0.91686153411865,-1.51416015625000,0.40966796875000,-0.39941406250000,0
7,416427962,-0.631474,0.306906,0.575047,0.419976,1.00000000000000,0.00003359001130,0.00002054404467,-0.00008299946785,0.08192902803421,0.00762659311295,0.01261091232300,9.83187580108643,0.91522771120071,1.51336991786957,0.46191427111626,0.28251218795776,-1.14137029647827,-1.52001953125000,0.40917968750000,-0.40087890625000,0
8,416436295,-0.631470,0.306809,0.575088,0.419998,1.00000000000000,0.00004018936306,0.00002245884389,-0.00009625218809,0.08183187246323,0.00810152292252,0.01252722740173,9.82021522521973,0.97222149372101,1.50332701206207,0.55266553163528,0.30884364247322,-1.32361543178558,-1.51806640625000,0.41015625000000,-0.39892578125000,0
9,416444628,-0.631470,0.306721,0.575124,0.420014,1.00000000000000,0.00003682915121,0.00002410728484,-0.00008482486010,0.08178615570068,0.00810497999191,0.01253479719162,9.81473064422607,0.97263646125793,1.50423598289490,0.50645744800568,0.33151224255562,-1.16647231578827,-1.52001953125000,0.41015625000000,-0.39990234375000,0
10,416452961,-0.631472,0.306638,0.575149,0.420037,1.00000000000000,0.00002482812852,0.00003036949784,-0.00008177757263,0.08151620626450,0.00819534063339,0.01264935731888,9.78233528137207,0.98348015546799,1.51798343658447,0.34142494201660,0.41762724518776,-1.12456727027893,-1.51708984375000,0.40820312500000,-0.39794921875000,0
11,416461294,-0.631475,0.306559,0.575171,0.420059,1.00000000000000,0.00002284068614,0.00003298837692,-0.00007785670459,0.08170163631439,0.00825965404510,0.01254791021347,9.80458927154541,0.99119812250137,1.50580954551697,0.31409451365471,0.45364087820053,-1.07064938545227,-1.51904296875000,0.41015625000000,-0.40136718750000,0
12,416469627,-0.631485,0.306499,0.575164,0.420098,1.00000000000000,-0.00000911764801,0.00005043391138,-0.00006534904242,0.08172589540482,0.00824278593063,0.01261609792709,9.80749893188477,0.98917382955551,1.51399219036102,-0.12538167834282,0.69354379177094,-0.89864981174469,-1.51464843750000,0.41064453125000,-0.40087890625000,0
13,416477960,-0.631493,0.306429,0.575172,0.420127,1.00000000000000,0.00000836420804,0.00004274677485,-0.00007070600986,0.08187919855118,0.00794547796249,0.01281076669693,9.82589626312256,0.95349544286728,1.53735339641571,0.11502072215080,0.58783388137817,-0.97231626510620,-1.51708984375000,0.40869140625000,-0.40136718750000,0
14,416486293,-0.631516,0.306357,0.575162,0.420157,1.00000000000000,0.00000596884638,0.00006217043847,-0.00006004422903,0.08212751150131,0.00824058055878,0.01235383749008,9.85569381713867,0.98890918493271,1.48251962661743,0.08208081126213,0.85493910312653,-0.82570046186447,-1.51660156250000,0.40917968750000,-0.39990234375000,0
15,416494626,-0.631540,0.306284,0.575160,0.420177,1.00000000000000,0.00001595076174,0.00005698483437,-0.00005673617125,0.08218640089035,0.00802332162857,0.01254701614380,9.86276245117188,0.96283698081970,1.50570213794708,0.21934749186039,0.78362900018692,-0.78020954132080,-1.51904296875000,0.40917968750000,-0.40039062500000,0
16,416502959,-0.631564,0.306214,0.575166,0.420184,1.00000000000000,0.00002574454993,0.00004483480006,-0.00004968233407,0.08186745643616,0.00786197185516,0.01250344514847,9.82448673248291,0.94347429275513,1.50047338008881,0.35402718186378,0.61654746532440,-0.68320852518082,-1.51708984375000,0.40869140625000,-0.40136718750000,0
17,416511292,-0.631589,0.306120,0.575180,0.420196,1.00000000000000,0.00004089158028,0.00005253870040,-0.00006783939898,0.08204370737076,0.00778609514236,0.01248413324356,9.84563827514648,0.93436872959137,1.49815583229065,0.56232213973999,0.72248798608780,-0.93289607763290,-1.51660156250000,0.40673828125000,-0.39892578125000,0
18,416519625,-0.631609,0.306024,0.575202,0.420204,1.00000000000000,0.00004717241973,0.00004439149052,-0.00007225945592,0.08183759450912,0.00788307189941,0.01247745752335,9.82090377807617,0.94600641727448,1.49735462665558,0.64869326353073,0.61045122146606,-0.99367856979370,-1.51562500000000,0.40966796875000,-0.40087890625000,0
19,416527958,-0.631625,0.305924,0.575235,0.420208,1.00000000000000,0.00005420390517,0.00003594066948,-0.00007526576519,0.08145034313202,0.00793164968491,0.01263958215714,9.77443122863770,0.95183593034744,1.51681065559387,0.74538707733154,0.49423947930336,-1.03502011299133,-1.51611328125000,0.40625000000000,-0.40332031250000,0
20,416536291,-0.631636,0.305824,0.575278,0.420207,1.00000000000000,0.00006005819887,0.00002416130155,-0.00007875263691,0.08139806985855,0.00782483816147,0.01263028383255,9.76815795898438,0.93901807069778,1.51569461822510,0.82589262723923,0.33225503563881,-1.08296978473663,-1.51708984375000,0.40820312500000,-0.40136718750000,0
21,416544624,-0.631645,0.305717,0.575336,0.420191,1.00000000000000,0.00008001830429,0.00001352932304,-0.00007770583034,0.08158558607101,0.00814014673233,0.01277130842209,9.79066085815430,0.97685658931732,1.53261816501617,1.10037469863892,0.18604899942875,-1.06857454776764,-1.51806640625000,0.40722656250000,-0.40234375000000,0
22,416552957,-0.631653,0.305633,0.575388,0.420170,1.00000000000000,0.00006418768317,0.00000366847962,-0.00006126984954,0.08156657218933,0.00841897726059,0.01292020082474,9.78837966918945,1.01031756401062,1.55048596858978,0.88267928361893,0.05044723302126,-0.84255456924438,-1.51953125000000,0.40673828125000,-0.40136718750000,0
23,416561290,-0.631653,0.305565,0.575437,0.420153,1.00000000000000,0.00004855263978,-0.00000241585076,-0.00005548819900,0.08166438341141,0.00802296400070,0.01266944408417,9.80011749267578,0.96279412508011,1.52039396762848,0.66767340898514,-0.03322166204453,-0.76304805278778,-1.51806640625000,0.40771484375000,-0.40039062500000,0
24,416569623,-0.631648,0.305490,0.575495,0.420134,1.00000000000000,0.00005638692528,-0.00001099519432,-0.00006428733468,0.08152645826340,0.00782859325409,0.01280504465103,9.78356552124023,0.93946868181229,1.53666675090790,0.77540689706802,-0.15120083093643,-0.88404971361160,-1.51806640625000,0.40869140625000,-0.40283203125000,0
25,416577956,-0.631642,0.305427,0.575555,0.420106,1.00000000000000,0.00005421135575,-0.00001813285053,-0.00005136243999,0.08174562454224,0.00849288702011,0.01298409700394,9.80986690521240,1.01918733119965,1.55815422534943,0.74548947811127,-0.24935457110405,-0.70631247758865,-1.51708984375000,0.40869140625000,-0.40039062500000,0
26,416586289,-0.631638,0.305390,0.575600,0.420079,1.00000000000000,0.00003170687705,-0.00002017989755,-0.00003317929804,0.08179557323456,0.00837308168411,0.01277208328247,9.81586074829102,1.00480985641479,1.53271090984344,0.43601831793785,-0.27750465273857,-0.45626634359360,-1.52099609375000,0.40917968750000,-0.40234375000000,0
27,416594622,-0.631634,0.305363,0.575642,0.420046,1.00000000000000,0.00002745073289,-0.00002323091030,-0.00002223066986,0.08197146654129,0.00816768407822,0.01254993677139,9.83696842193604,0.98016124963760,1.50605249404907,0.37748977541924,-0.31946071982384,-0.30570590496063,-1.51904296875000,0.40820312500000,-0.40039062500000,0
28,416602955,-0.631629,0.305341,0.575672,0.420027,1.00000000000000,0.00001139659435,-0.00001474283636,-0.00002437084913,0.08193475008011,0.00822061300278,0.01259154081345,9.83256149291992,0.98651272058487,1.51104497909546,0.15672071278095,-0.20273669064045,-0.33513665199280,-1.51806640625000,0.40722656250000,-0.39990234375000,0
29,416611288,-0.631629,0.305324,0.575698,0.420005,1.00000000000000,0.00000899005681,-0.00001111626625,-0.00001631118357,0.08204782009125,0.00817322731018,0.01254665851593,9.84613132476807,0.98082643747330,1.50565910339355,0.12362708896399,-0.15286573767662,-0.22430384159088,-1.51904296875000,0.40917968750000,-0.40039062500000,0
30,416619621,-0.631627,0.305310,0.575725,0.419981,1.00000000000000,0.00000910554081,-0.00001694448292,-0.00001450441778,0.08197259902954,0.00827580690384,0.01273405551910,9.83710479736328,0.99313646554947,1.52814769744873,0.12521517276764,-0.23301267623901,-0.19945804774761,-1.51904296875000,0.40917968750000,-0.40332031250000,0
31,416627954,-0.631627,0.305297,0.575758,0.419945,1.00000000000000,0.00001767557114,-0.00002106837928,-0.00000842474401,0.08183211088181,0.00815767049789,0.01256304979324,9.82024574279785,0.97895956039429,1.50762617588043,0.24306626617908,-0.28972259163857,-0.11585317552090,-1.52001953125000,0.40869140625000,-0.40234375000000,0
32,416636287,-0.631638,0.305279,0.575782,0.419909,1.00000000000000,0.00002079736441,-0.00000913627446,-0.00000248290598,0.08202135562897,0.00856345891953,0.01253229379654,9.84295558929443,1.02765560150146,1.50393497943878,0.28599575161934,-0.12563782930374,-0.03414377197623,-1.51708984375000,0.40917968750000,-0.40136718750000,0
33,416644620,-0.631644,0.305286,0.575796,0.419875,1.00000000000000,-0.00000212900341,-0.00001380220056,0.00001104455441,0.08196407556534,0.00820356607437,0.01266318559647,9.83608150482178,0.98446720838547,1.51964294910431,-0.02927707321942,-0.18980148434639,0.15187960863113,-1.51757812500000,0.40771484375000,-0.39697265625000,0
34,416652953,-0.631645,0.305293,0.575820,0.419836,1.00000000000000,0.00000380259007,-0.00002625770867,0.00000835862011,0.08204072713852,0.00783050060272,0.01260739564896,9.84528160095215,0.93969774246216,1.51294803619385,0.05229146033525,-0.36108386516571,0.11494388431311,-1.51855468750000,0.41015625000000,-0.40136718750000,0
35,416661286,-0.631643,0.305292,0.575849,0.419799,1.00000000000000,0.00000875908881,-0.00002570264041,0.00000100675970,0.08210599422455,0.00778114795685,0.01261955499649,9.85311317443848,0.93377500772476,1.51440703868866,0.12045093625784,-0.35345083475113,0.01384449377656,-1.51611328125000,0.40771484375000,-0.40332031250000,0
36,416669619,-0.631646,0.305272,0.575879,0.419770,1.00000000000000,0.00001822132617,-0.00001430138946,-0.00001445226371,0.08232063055038,0.00776863098145,0.01247555017471,9.87887001037598,0.93227291107178,1.49712574481964,0.25057125091553,-0.19666609168053,-0.19874083995819,-1.51611328125000,0.40673828125000,-0.39990234375000,0
37,416677952,-0.631639,0.305252,0.575902,0.419763,1.00000000000000,-0.00000116974115,-0.00000754557550,-0.00002991408110,0.08209729194641,0.00776386260986,0.01240783929825,9.85206794738770,0.93170070648193,1.48900020122528,-0.01608573831618,-0.10376325249672,-0.41136461496353,-1.51757812500000,0.40576171875000,-0.39990234375000,0
38,416686285,-0.631636,0.305200,0.575936,0.419758,1.00000000000000,0.00002422463149,0.00000059138983,-0.00005099177361,0.08193439245224,0.00776028633118,0.01241177320480,9.83251857757568,0.93127143383026,1.48947191238403,0.33312591910362,0.00813251920044,-0.70121526718140,-1.51660156250000,0.40380859375000,-0.39892578125000,0
39,416694618,-0.631636,0.305151,0.575962,0.419758,1.00000000000000,0.00001705903560,0.00000910367817,-0.00004854239523,0.08188921213150,0.00796991586685,0.01242226362228,9.82709789276123,0.95642811059952,1.49073112010956,0.23458796739578,0.12518957257271,-0.66753256320953,-1.51855468750000,0.40478515625000,-0.40380859375000,0
40,416702951,-0.631633,0.305094,0.575989,0.419767,1.00000000000000,0.00001584831625,0.00001145247370,-0.00006105750799,0.08198678493500,0.00788688659668,0.01258939504623,9.83880710601807,0.94646418094635,1.51078772544861,0.21793870627880,0.15748912096024,-0.83963459730148,-1.51904296875000,0.40722656250000,-0.40429687500000,0
41,416711284,-0.631636,0.305041,0.576012,0.419770,1.00000000000000,0.00001755263656,0.00001423340291,-0.00005062483251,0.08203470706940,0.00823193788528,0.01261138916016,9.84455680847168,0.98787194490433,1.51342689990997,0.24137574434280,0.19573116302490,-0.69616919755936,-1.51806640625000,0.40869140625000,-0.40185546875000,0
42,416719617,-0.631635,0.304984,0.576031,0.419786,1.00000000000000,0.00000947806984,0.00001986231655,-0.00006237998605,0.08207595348358,0.00819057226181,0.01251286268234,9.84950733184814,0.98290789127350,1.50160348415375,0.13033802807331,0.27313736081123,-0.85782068967819,-1.51806640625000,0.40673828125000,-0.40185546875000,0
43,416727950,-0.631633,0.304932,0.576042,0.419813,1.00000000000000,-0.00000265240669,0.00002665165812,-0.00006370432675,0.08203375339508,0.00800704956055,0.01263266801834,9.84444332122803,0.96088433265686,1.51598072052002,-0.03647466748953,0.36650127172470,-0.87603247165680,-1.51855468750000,0.40722656250000,-0.40283203125000,0
44,416736283,-0.631635,0.304858,0.576060,0.419839,1.00000000000000,0.00001479219645,0.00003216322511,-0.00007643178105,0.08207553625107,0.00804299116135,0.01251304149628,9.84945774078369,0.96519750356674,1.50162494182587,0.20341543853283,0.44229379296303,-1.05105447769165,-1.51806640625000,0.40820312500000,-0.40283203125000,0
45,416744616,-0.631631,0.304780,0.576084,0.419868,1.00000000000000,0.00001650210470,0.00002930592746,-0.00008437409997,0.08209431171417,0.00803971290588,0.01251643896103,9.85171031951904,0.96480405330658,1.50203263759613,0.22692932188511,0.40300154685974,-1.16027355194092,-1.51904296875000,0.40527343750000,-0.40234375000000,0
46,416752949,-0.631629,0.304697,0.576098,0.419912,1.00000000000000,0.00000776071101,0.00004152301699,-0.00009486079216,0.08186894655228,0.00798875093460,0.01259809732437,9.82466411590576,0.95868819952011,1.51183187961578,0.10672170668840,0.57100528478622,-1.30448174476624,-1.51904296875000,0.40771484375000,-0.39941406250000,0
47,416761282,-0.631623,0.304610,0.576119,0.419957,1.00000000000000,0.00001096632332,0.00003811437637,-0.00009959377348,0.08189004659653,0.00813406705856,0.01233941316605,9.82719707489014,0.97612684965134,1.48078858852386,0.15080381929874,0.52413129806519,-1.36956751346588,-1.51855468750000,0.40625000000000,-0.40380859375000,0
48,416769615,-0.631614,0.304519,0.576138,0.420009,1.00000000000000,0.00000820029527,0.00004077237099,-0.00010773725808,0.08182132244110,0.00794452428818,0.01254075765610,9.81895065307617,0.95338100194931,1.50495100021362,0.11276666820049,0.56068283319473,-1.48155295848846,-1.51855468750000,0.40820312500000,-0.40429687500000,0
49,416777948,-0.631607,0.304434,0.576158,0.420054,1.00000000000000,0.00000868272036,0.00003753136843,-0.00009850226343,0.08173930644989,0.00842338800430,0.01253378391266,9.80910968780518,1.01084721088409,1.50411427021027,0.11940075457096,0.51611399650574,-1.35455763339996,-1.51757812500000,0.40380859375000,-0.40380859375000,0
50,416786281,-0.631606,0.304360,0.576168,0.420095,1.00000000000000,0.00000234227628,0.00003915559500,-0.00008522719145,0.08173805475235,0.00856381654739,0.01261281967163,9.80895805358887,1.02769899368286,1.51359879970551,0.03220989927649,0.53844964504242,-1.17200481891632,-1.51611328125000,0.40625000000000,-0.40478515625000,0
51,416794614,-0.631597,0.304304,0.576180,0.420131,1.00000000000000,-0.00000813417137,0.00002686027437,-0.00007518939674,0.08156609535217,0.00844675302505,0.01260584592819,9.78832054138184,1.01365065574646,1.51276195049286,-0.11185736209154,0.36937007308006,-1.03396964073181,-1.51757812500000,0.40429687500000,-0.40185546875000,0
52,416802947,-0.631587,0.304246,0.576195,0.420169,1.00000000000000,-0.00000683590770,0.00002422090620,-0.00007884949446,0.08176499605179,0.00811135768890,0.01247954368591,9.81219100952148,0.97340178489685,1.49760508537292,-0.09400425106287,0.33307468891144,-1.08430182933807,-1.51904296875000,0.40478515625000,-0.40185546875000,0
53,416811280,-0.631579,0.304176,0.576217,0.420202,1.00000000000000,0.00000689830631,0.00002599786967,-0.00008433498442,0.08200836181641,0.00819188356400,0.01252371072769,9.84139633178711,0.98306524753571,1.50290524959564,0.09486231952906,0.35751065611839,-1.15973567962646,-1.51806640625000,0.40234375000000,-0.40185546875000,0
54,416819613,-0.631561,0.304112,0.576240,0.420243,1.00000000000000,-0.00000290200114,0.00001756940037,-0.00009060837328,0.08203071355820,0.00826901197433,0.01264339685440,9.84407901763916,0.99232107400894,1.51726818084717,-0.03990697860718,0.24160626530647,-1.24600446224213,-1.51708984375000,0.40429687500000,-0.40576171875000,0
55,416827946,-0.631540,0.304036,0.576270,0.420289,1.00000000000000,0.00000273156911,0.00001918058842,-0.00010318495333,0.08170956373215,0.00766974687576,0.01263642311096,9.80553913116455,0.92040640115738,1.51643133163452,0.03756327182055,0.26376256346703,-1.41895174980164,-1.52001953125000,0.40429687500000,-0.40234375000000,0
56,416836279,-0.631521,0.303929,0.576316,0.420331,1.00000000000000,0.00003174971789,0.00002152565867,-0.00012321025133,0.08188247680664,0.00790983438492,0.01267194747925,9.82602214813232,0.95147120952606,1.52101886272430,0.43660748004913,0.29601094126701,-1.69433057308197,-1.51611328125000,0.40380859375000,-0.40283203125000,0
57,416844612,-0.631498,0.303817,0.576367,0.420378,1.00000000000000,0.00003322679549,0.00002032611519,-0.00013190321624,0.08173638582230,0.00824666023254,0.01285511255264,9.80850315093994,0.99175804853439,1.54293763637543,0.45691949129105,0.27951535582542,-1.81387197971344,-1.52001953125000,0.40625000000000,-0.40332031250000,0
58,416852945,-0.631474,0.303714,0.576412,0.420427,1.00000000000000,0.00002341065556,0.00001929793507,-0.00012679770589,0.08176082372665,0.00818502902985,0.01260781288147,9.81142044067383,0.98448598384857,1.51328945159912,0.32193252444267,0.26537626981735,-1.74366331100464,-1.52001953125000,0.40234375000000,-0.40332031250000,0
59,416861278,-0.631448,0.303598,0.576460,0.420484,1.00000000000000,0.00002795364708,0.00002569984645,-0.00014087744057,0.08171033859253,0.00823712348938,0.01254945993423,9.80538177490234,0.99048691987991,1.50630915164948,0.38440558314323,0.35341238975525,-1.93728137016296,-1.51904296875000,0.40283203125000,-0.40380859375000,0
60,416869611,-0.631418,0.303478,0.576525,0.420527,1.00000000000000,0.00004426855594,0.00000882241875,-0.00014202110469,0.08186769485474,0.00856226682663,0.01262855529785,9.82430171966553,1.02947545051575,1.51554238796234,0.60876071453094,0.12132182717323,-1.95300853252411,-1.51708984375000,0.40576171875000,-0.40429687500000,0
61,416877944,-0.631389,0.303369,0.576576,0.420577,1.00000000000000,0.00002769101411,0.00001707393676,-0.00013458915055,0.08175420761108,0.00826388597488,0.01239788532257,9.81064987182617,0.99382245540619,1.48802316188812,0.38079401850700,0.23479287326336,-1.85080778598785,-1.51904296875000,0.40380859375000,-0.40527343750000,0
62,416886277,-0.631363,0.303245,0.576643,0.420615,1.00000000000000,0.00005189795047,0.00000953581184,-0.00014042854309,0.08165669441223,0.00804609060287,0.01241475343704,9.79899501800537,0.96749407052994,1.48988687992096,0.71367663145065,0.13113209605217,-1.93110859394073,-1.51708984375000,0.40234375000000,-0.40087890625000,0
63,416894610,-0.631333,0.303115,0.576718,0.420651,1.00000000000000,0.00005866121501,0.00000569876283,-0.00014463625848,0.08152914047241,0.00857192277908,0.01271939277649,9.78369331359863,1.03050994873047,1.52638208866119,0.80668193101883,0.07836674153805,-1.98897099494934,-1.51757812500000,0.40136718750000,-0.40185546875000,0
64,416902943,-0.631298,0.302995,0.576789,0.420693,1.00000000000000,0.00004652608186,0.00000206474215,-0.00014512613416,0.08155304193497,0.00843709707260,0.01249277591705,9.78656291961670,1.01440370082855,1.49915838241577,0.63980519771576,0.02839337661862,-1.99570739269257,-1.52001953125000,0.40332031250000,-0.40527343750000,0
65,416911276,-0.631264,0.302865,0.576870,0.420725,1.00000000000000,0.00006251689047,-0.00000186078250,-0.00014664605260,0.08160156011581,0.00841391086578,0.01247775554657,9.79240703582764,1.01150321960449,1.49729502201080,0.85970342159271,-0.02558862231672,-2.01660895347595,-1.51611328125000,0.40332031250000,-0.40722656250000,0
66,416919609,-0.631223,0.302728,0.576959,0.420764,1.00000000000000,0.00006380211562,-0.00000733137131,-0.00016153231263,0.08155465126038,0.00843167304993,0.01269769668579,9.78679943084717,1.01349627971649,1.52364981174469,0.87737727165222,-0.10081762820482,-2.22131776809692,-1.52148437500000,0.40136718750000,-0.40380859375000,0
67,416927942,-0.631171,0.302604,0.577045,0.420813,1.00000000000000,0.00004622247070,-0.00001236051321,-0.00016256421804,0.08168339729309,0.00818336009979,0.01281952857971,9.80225181579590,0.98376983404160,1.53823161125183,0.63562995195389,-0.16997605562210,-2.23550796508789,-1.52294921875000,0.40380859375000,-0.40527343750000,0
68,416936275,-0.631118,0.302451,0.577140,0.420874,1.00000000000000,0.00006032828242,-0.00000443682075,-0.00019097141922,0.08175539970398,0.00806593894958,0.01262873411179,9.81090736389160,0.96941065788269,1.51543295383453,0.82960665225983,-0.06101310625672,-2.62615084648132,-1.52099609375000,0.40136718750000,-0.40185546875000,0
69,416944608,-0.631067,0.302290,0.577232,0.420940,1.00000000000000,0.00006171595305,0.00000519957393,-0.00019611418247,0.08172458410263,0.00864803791046,0.01257324218750,9.80719280242920,1.03922677040100,1.50883996486664,0.84868919849396,0.07150214165449,-2.69687151908875,-1.52050781250000,0.40087890625000,-0.40136718750000,0
70,416952941,-0.631010,0.302139,0.577313,0.421021,1.00000000000000,0.00004076305777,0.00000779796392,-0.00020015425980,0.08169525861740,0.00843960046768,0.01262468099594,9.80366897583008,1.01423609256744,1.51504719257355,0.56055474281311,0.10723399370909,-2.75242877006531,-1.51806640625000,0.39794921875000,-0.40429687500000,0
71,416961274,-0.630953,0.301962,0.577408,0.421102,1.00000000000000,0.00006236601621,0.00001065526158,-0.00021816231310,0.08160072565079,0.00850540399551,0.01256811618805,9.79220199584961,1.02326583862305,1.50828123092651,0.85762858390808,0.14652623236179,-3.00006723403931,-1.51904296875000,0.40087890625000,-0.40283203125000,0
72,416969607,-0.630902,0.301800,0.577494,0.421178,1.00000000000000,0.00005496945232,0.00001104269177,-0.00020195171237,0.08171236515045,0.00910937786102,0.01277154684067,9.80571269989014,1.09456944465637,1.53267920017242,0.75591456890106,0.15185399353504,-2.77714657783508,-1.52099609375000,0.39843750000000,-0.40332031250000,0
73,416977940,-0.630860,0.301668,0.577557,0.421249,1.00000000000000,0.00003080163151,0.00001716334373,-0.00017085112631,0.08188271522522,0.00916534662247,0.01265770196915,9.82610797882080,1.10157525539398,1.51911687850952,0.42356982827187,0.23602239787579,-2.34946584701538,-1.52246093750000,0.39892578125000,-0.40185546875000,0
74,416986273,-0.630819,0.301553,0.577618,0.421309,1.00000000000000,0.00002626609057,0.00000822637230,-0.00015215575695,0.08185809850693,0.00942802429199,0.01280802488327,9.82313346862793,1.13332152366638,1.53708803653717,0.36119908094406,0.11312526464462,-2.09237551689148,-1.51904296875000,0.40087890625000,-0.40283203125000,0
75,416994606,-0.630791,0.301457,0.577661,0.421360,1.00000000000000,0.00001641083509,0.00001721549779,-0.00012534111738,0.08189499378204,0.00927549600601,0.01249498128891,9.82748794555664,1.11540448665619,1.49973404407501,0.22567419707775,0.23673959076405,-1.72363305091858,-1.52294921875000,0.39843750000000,-0.40185546875000,0
76,417002939,-0.630764,0.301385,0.577694,0.421406,1.00000000000000,-0.00000033155084,0.00001121032983,-0.00010488927364,0.08202648162842,0.00902122259140,0.01264333724976,9.84357070922852,1.08258998394012,1.51726102828979,-0.00455933343619,0.15415926277637,-1.44238865375519,-1.51855468750000,0.39990234375000,-0.40283203125000,0
77,417011272,-0.630749,0.301318,0.577719,0.421442,1.00000000000000,0.00000254157931,0.00001966673881,-0.00008818134665,0.08194077014923,0.00915420055389,0.01286709308624,9.83328533172607,1.09854793548584,1.54411280155182,0.03495062142611,0.27044788002968,-1.21262907981873,-1.52148437500000,0.40087890625000,-0.40527343750000,0
78,417019605,-0.630734,0.301276,0.577735,0.421474,1.00000000000000,-0.00001481920481,0.00001109484583,-0.00006828270853,0.08204638957977,0.00930118560791,0.01281338930130,9.84595966339111,1.11618685722351,1.53766810894012,-0.20378687977791,0.15257118642330,-0.93899232149124,-1.52099609375000,0.39990234375000,-0.40136718750000,0
79,417027938,-0.630722,0.301260,0.577739,0.421498,1.00000000000000,-0.00003087893128,0.00001016538590,-0.00004286877811,0.08194327354431,0.00921702384949,0.01257812976837,9.83358573913574,1.10608696937561,1.50943589210510,-0.42463275790215,0.13978968560696,-0.58951163291931,-1.52246093750000,0.39648437500000,-0.40234375000000,0
80,417036271,-0.630709,0.301246,0.577747,0.421516,1.00000000000000,-0.00002696551383,0.00000187102705,-0.00004079192877,0.08181500434875,0.00885897874832,0.01251471042633,9.81819343566895,1.06311976909637,1.50182557106018,-0.37081727385521,0.02572950161994,-0.56095170974731,-1.52148437500000,0.39453125000000,-0.40576171875000,0
81,417044604,-0.630700,0.301239,0.577747,0.421535,1.00000000000000,-0.00003391504288,0.00000863056630,-0.00003214552999,0.08187836408615,0.00906860828400,0.01277536153793,9.82579612731934,1.08827638626099,1.53310453891754,-0.46638399362564,0.11868355423212,-0.44205045700073,-1.52050781250000,0.39990234375000,-0.40527343750000,0
82,417052937,-0.630683,0.301235,0.577744,0.421567,1.00000000000000,-0.00004722364247,0.00000666733831,-0.00004146248102,0.08173233270645,0.00876766443253,0.01261442899704,9.80827140808105,1.05216169357300,1.51379191875458,-0.64939761161804,0.09168614447117,-0.57017284631729,-1.52001953125000,0.39648437500000,-0.40332031250000,0
83,417061270,-0.630667,0.301215,0.577753,0.421592,1.00000000000000,-0.00002737529576,0.00000541377813,-0.00004962645471,0.08168387413025,0.00880688428879,0.01267427206039,9.80245590209961,1.05686831474304,1.52097332477570,-0.37645238637924,0.07444776594639,-0.68244004249573,-1.51757812500000,0.39941406250000,-0.40429687500000,0
84,417069603,-0.630654,0.301216,0.577744,0.421624,1.00000000000000,-0.00005137734115,0.00001050997525,-0.00003555417061,0.08178007602692,0.00900465250015,0.01248830556870,9.81400108337402,1.08060145378113,1.49865651130676,-0.70651751756668,0.14452834427357,-0.48892459273338,-1.51904296875000,0.39843750000000,-0.40576171875000,0
85,417077936,-0.630636,0.301235,0.577730,0.421656,1.00000000000000,-0.00006694532931,0.00000568572432,-0.00002560392022,0.08150702714920,0.00886613130569,0.01253110170364,9.78123378753662,1.06397819519043,1.50379228591919,-0.92060106992722,0.07818744331598,-0.35209327936172,-1.52294921875000,0.39746093750000,-0.40380859375000,0
86,417086269,-0.630619,0.301233,0.577723,0.421694,1.00000000000000,-0.00005304068327,0.00000998284668,-0.00004273466766,0.08168685436249,0.00863504409790,0.01257598400116,9.80281352996826,1.03624665737152,1.50917828083038,-0.72939097881317,0.13727949559689,-0.58766734600067,-1.51953125000000,0.39697265625000,-0.40283203125000,0
87,417094602,-0.630598,0.301227,0.577715,0.421740,1.00000000000000,-0.00005776435137,0.00001381430775,-0.00005185604095,0.08171492815018,0.00874775648117,0.01261657476425,9.80618286132812,1.04977273941040,1.51404941082001,-0.79434865713120,0.18996797502041,-0.71310031414032,-1.52148437500000,0.39941406250000,-0.40429687500000,0
88,417102935,-0.630577,0.301220,0.577703,0.421793,1.00000000000000,-0.00006288848817,0.00001814868301,-0.00005505047739,0.08181869983673,0.00879901647568,0.01268464326859,9.81863594055176,1.05592417716980,1.52221798896790,-0.86481338739395,0.24957229197025,-0.75702875852585,-1.52099609375000,0.39941406250000,-0.40283203125000,0
89,417111268,-0.630554,0.301201,0.577692,0.421856,1.00000000000000,-0.00006067007780,0.00002567749470,-0.00006985664368,0.08168822526932,0.00868672132492,0.01262801885605,9.80297851562500,1.04244816303253,1.51542282104492,-0.83430683612823,0.35310500860214,-0.96063625812531,-1.51855468750000,0.39648437500000,-0.40478515625000,0
90,417119601,-0.630525,0.301192,0.577677,0.421925,1.00000000000000,-0.00007363222539,0.00002048816532,-0.00006935745478,0.08177173137665,0.00889927148819,0.01289135217667,9.81299972534180,1.06795525550842,1.54702401161194,-1.01255619525909,0.28174376487732,-0.95377159118652,-1.52001953125000,0.39501953125000,-0.40527343750000,0
91,417127934,-0.630499,0.301193,0.577662,0.421985,1.00000000000000,-0.00007427670062,0.00001644436270,-0.00005696713924,0.08161228895187,0.00902694463730,0.01256126165390,9.79386615753174,1.08327639102936,1.50741183757782,-1.02141892910004,0.22613526880741,-0.78338575363159,-1.51855468750000,0.39794921875000,-0.40380859375000,0
92,417136267,-0.630479,0.301200,0.577650,0.422025,1.00000000000000,-0.00006388500333,0.00000846851617,-0.00003850087523,0.08184874057770,0.00913584232330,0.01263785362244,9.82224082946777,1.09634482860565,1.51660299301147,-0.87851697206497,0.11645511537790,-0.52944624423981,-1.52050781250000,0.39453125000000,-0.40380859375000,0
93,417144600,-0.630463,0.301221,0.577632,0.422058,1.00000000000000,-0.00006910786033,0.00000790040940,-0.00002199597657,0.08186781406403,0.00877326726913,0.01263636350632,9.82452964782715,1.05283379554749,1.51642417907715,-0.95033931732178,0.10864277184010,-0.30247849225998,-1.52197265625000,0.39746093750000,-0.40673828125000,0
94,417152933,-0.630451,0.301234,0.577620,0.422086,1.00000000000000,-0.00005753152072,0.00000749994069,-0.00002504140139,0.08165824413300,0.00870800018311,0.01274687051773,9.79938030242920,1.04500174522400,1.52968549728394,-0.79114687442780,0.10313571244478,-0.34435775876045,-1.51904296875000,0.39599609375000,-0.39941406250000,0
95,417161266,-0.630432,0.301231,0.577629,0.422102,1.00000000000000,-0.00003449060023,-0.00000545941293,-0.00003500469029,0.08194184303284,0.00844854116440,0.01240307092667,9.83341407775879,1.01386547088623,1.48842799663544,-0.47429874539375,-0.07507532089949,-0.48136836290359,-1.52197265625000,0.39746093750000,-0.40234375000000,0
96,417169599,-0.630418,0.301205,0.577647,0.422118,1.00000000000000,-0.00001411139965,-0.00000105984509,-0.00004967302084,0.08173072338104,0.00827687978745,0.01241594552994,9.80807971954346,0.99326533079147,1.48997271060944,-0.19405347108841,-0.01457449980080,-0.68308043479919,-1.52050781250000,0.39892578125000,-0.40429687500000,0
97,417177932,-0.630405,0.301158,0.577678,0.422128,1.00000000000000,0.00000749249011,0.00000069569796,-0.00006067939103,0.08178418874741,0.00858873128891,0.01242554187775,9.81449413299561,1.03068888187408,1.49112451076508,0.10303325951099,0.00956691615283,-0.83443480730057,-1.52343750000000,0.39599609375000,-0.40332031250000,0
98,417186265,-0.630387,0.301115,0.577710,0.422142,1.00000000000000,0.00000286754221,-0.00000448711216,-0.00006453320384,0.08189582824707,0.00849366188049,0.01262325048447,9.82789134979248,1.01928007602692,1.51485049724579,0.03943311423063,-0.06170469149947,-0.88743072748184,-1.52050781250000,0.39599609375000,-0.40576171875000,0
99,417194598,-0.630370,0.301048,0.577758,0.422150,1.00000000000000,0.00002689193934,-0.00000448897481,-0.00007754750550,0.08171057701111,0.00843119621277,0.01253318786621,9.80565929412842,1.01178383827209,1.50404238700867,0.36980548501015,-0.06173030287027,-1.06639742851257,-1.52148437500000,0.39746093750000,-0.40136718750000,0
100,417202931,-0.630355,0.300957,0.577816,0.422158,1.00000000000000,0.00004886742681,-0.00000111386180,-0.00009415671229,0.08173781633377,0.00878453254700,0.01271659135818,9.80893039703369,1.05418610572815,1.52605211734772,0.67200225591660,-0.01531731151044,-1.29479956626892,-1.52148437500000,0.39746093750000,-0.40185546875000,0
101,417211264,-0.630337,0.300872,0.577878,0.422160,1.00000000000000,0.00004755239934,-0.00000846013427,-0.00008942745626,0.08159464597702,0.00891107320786,0.01267212629318,9.79174804687500,1.06937146186829,1.52071583271027,0.65391856431961,-0.11633985489607,-1.22976505756378,-1.52294921875000,0.39306640625000,-0.40380859375000,0
102,417219597,-0.630314,0.300799,0.577936,0.422168,1.00000000000000,0.00003461632878,-0.00001261197031,-0.00008691102266,0.08163040876389,0.00872737169266,0.01267111301422,9.79604053497314,1.04732644557953,1.52059423923492,0.47602775692940,-0.17343395948410,-1.19516015052795,-1.51904296875000,0.39648437500000,-0.40283203125000,0
103,417227930,-0.630295,0.300714,0.577997,0.422172,1.00000000000000,0.00004609022290,-0.00000747665763,-0.00009098462760,0.08166390657425,0.00901144742966,0.01248538494110,9.80006027221680,1.08141684532166,1.49830603599548,0.63381141424179,-0.10281553119421,-1.25117850303650,-1.51953125000000,0.39599609375000,-0.40234375000000,0
104,417236263,-0.630272,0.300634,0.578058,0.422180,1.00000000000000,0.00003975164145,-0.00001261383295,-0.00009266473353,0.08151763677597,0.00894278287888,0.01258575916290,9.78250694274902,1.07317674160004,1.51035141944885,0.54664617776871,-0.17345960438251,-1.27428245544434,-1.52148437500000,0.39648437500000,-0.40429687500000,0
105,417244596,-0.630255,0.300568,0.578118,0.422171,1.00000000000000,0.00004253629595,-0.00001754984260,-0.00007002800703,0.08161300420761,0.00937354564667,0.01278084516525,9.79395008087158,1.12487018108368,1.53376233577728,0.58493942022324,-0.24133731424809,-0.96299278736115,-1.52099609375000,0.39892578125000,-0.40332031250000,0
106,417252929,-0.630242,0.300513,0.578166,0.422164,1.00000000000000,0.00002986099571,-0.00001279264688,-0.00006073899567,0.08162093162537,0.00950330495834,0.01260000467300,9.79490280151367,1.14044225215912,1.51206111907959,0.41063457727432,-0.17591854929924,-0.83525449037552,-1.51953125000000,0.39648437500000,-0.40478515625000,0
107,417261262,-0.630230,0.300480,0.578203,0.422154,1.00000000000000,0.00001333002001,-0.00001486204565,-0.00004130974412,0.08177232742310,0.00930994749069,0.01255524158478,9.81307125091553,1.11723828315735,1.50668919086456,0.18330825865269,-0.20437598228455,-0.56807249784470,-1.52050781250000,0.39599609375000,-0.40136718750000,0
108,417269595,-0.630216,0.300461,0.578238,0.422140,1.00000000000000,0.00000634137541,-0.00002306886017,-0.00003112666309,0.08178621530533,0.00919657945633,0.01263004541397,9.81473731994629,1.10363364219666,1.51566600799561,0.08720366656780,-0.31723228096962,-0.42803949117661,-1.52099609375000,0.39648437500000,-0.40380859375000,0
109,417277928,-0.630205,0.300445,0.578263,0.422134,1.00000000000000,-0.00000417232513,-0.00001242943108,-0.00003041885793,0.08187949657440,0.00885879993439,0.01246285438538,9.82593059539795,1.06309843063354,1.49560236930847,-0.05737588554621,-0.17092376947403,-0.41830605268478,-1.52294921875000,0.39355468750000,-0.40332031250000,0
110,417286261,-0.630190,0.300425,0.578290,0.422134,1.00000000000000,-0.00000497326255,-0.00001321360469,-0.00003893114626,0.08172500133514,0.00891894102097,0.01264774799347,9.80739212036133,1.07031559944153,1.51779031753540,-0.06839001178741,-0.18170739710331,-0.53536313772202,-1.52294921875000,0.39550781250000,-0.40527343750000,0
111,417294594,-0.630178,0.300399,0.578315,0.422136,1.00000000000000,-0.00000295229256,-0.00000645220280,-0.00004162453115,0.08167630434036,0.00901585817337,0.01256132125854,9.80154800415039,1.08194613456726,1.50741875171661,-0.04059855639935,-0.08872769773006,-0.57240128517151,-1.52099609375000,0.39453125000000,-0.40332031250000,0
112,417302927,-0.630165,0.300373,0.578342,0.422136,1.00000000000000,-0.00000133551657,-0.00000974908471,-0.00004123337567,0.08171075582504,0.00915861129761,0.01254290342331,9.80568218231201,1.09907722473145,1.50520849227905,-0.01836540549994,-0.13406489789486,-0.56702232360840,-1.52050781250000,0.39599609375000,-0.40283203125000,0
113,417311260,-0.630154,0.300360,0.578359,0.422139,1.00000000000000,-0.00001409091055,-0.00000615790486,-0.00003144517541,0.08161324262619,0.00904709100723,0.01258593797684,9.79398059844971,1.08569431304932,1.51037287712097,-0.19377167522907,-0.08468065410852,-0.43241950869560,-1.52001953125000,0.39550781250000,-0.40380859375000,0
114,417319593,-0.630151,0.300348,0.578368,0.422139,1.00000000000000,-0.00001440197229,0.00000095833093,-0.00002433918417,0.08156561851501,0.00937598943710,0.01266855001450,9.78826332092285,1.12516355514526,1.52028703689575,-0.19804927706718,0.01317852456123,-0.33470124006271,-1.52246093750000,0.39794921875000,-0.40478515625000,0
115,417327926,-0.630142,0.300379,0.578365,0.422136,1.00000000000000,-0.00004715658724,-0.00001279264688,0.00000454578549,0.08170157670975,0.00957447290421,0.01267313957214,9.80458068847656,1.14898264408112,1.52083766460419,-0.64847558736801,-0.17591854929924,0.06251153349876,-1.52148437500000,0.39453125000000,-0.40429687500000,0
116,417336259,-0.630136,0.300425,0.578353,0.422128,1.00000000000000,-0.00005562976003,-0.00001345202327,0.00001937430352,0.08168536424637,0.00945329666138,0.01276308298111,9.80263519287109,1.13444089889526,1.53163111209869,-0.76499468088150,-0.18498601019382,0.26642644405365,-1.52001953125000,0.39550781250000,-0.40234375000000,0
117,417344592,-0.630136,0.300484,0.578332,0.422114,1.00000000000000,-0.00006216205657,-0.00001154281199,0.00003688503057,0.08174633979797,0.00944560766220,0.01271283626556,9.80995273590088,1.13351809978485,1.52560162544250,-0.85482382774353,-0.15873140096664,0.50722587108612,-1.52246093750000,0.39697265625000,-0.40576171875000,0
118,417352925,-0.630128,0.300566,0.578310,0.422099,1.00000000000000,-0.00008045323193,-0.00002601929009,0.00004640687257,0.08166605234146,0.00913304090500,0.01264029741287,9.80031776428223,1.09600865840912,1.51689612865448,-1.10635566711426,-0.35780525207520,0.63816577196121,-1.52050781250000,0.39599609375000,-0.40478515625000,0
119,417361258,-0.630121,0.300650,0.578284,0.422085,1.00000000000000,-0.00008322112262,-0.00002272427082,0.00004991423339,0.08158570528030,0.00893944501877,0.01251959800720,9.79067516326904,1.07277619838715,1.50241172313690,-1.14441835880280,-0.31249365210533,0.68639743328094,-1.52197265625000,0.39843750000000,-0.40136718750000,0
120,417369591,-0.630111,0.300739,0.578258,0.422072,1.00000000000000,-0.00008695013821,-0.00002742372453,0.00005042832345,0.08159106969833,0.00865465402603,0.01253420114517,9.79131984710693,1.03859996795654,1.50416409969330,-1.19569802284241,-0.37711834907532,0.69346696138382,-1.51953125000000,0.39990234375000,-0.40332031250000,0
121,417377924,-0.630099,0.300813,0.578243,0.422057,1.00000000000000,-0.00007274560630,-0.00002799928188,0.00003895442933,0.08170408010483,0.00864189863205,0.01256412267685,9.80488109588623,1.03706920146942,1.50775492191315,-1.00036406517029,-0.38503319025040,0.53568327426910,-1.52001953125000,0.39648437500000,-0.40429687500000,0
122,417386257,-0.630075,0.300882,0.578230,0.422061,1.00000000000000,-0.00008278153837,-0.00003064982593,0.00001866277307,0.08173078298569,0.00825887918472,0.01226335763931,9.80808544158936,0.99110507965088,1.47166168689728,-1.13837349414825,-0.42148223519325,0.25664183497429,-1.52294921875000,0.39746093750000,-0.40332031250000,0
123,417394590,-0.630059,0.300903,0.578242,0.422054,1.00000000000000,-0.00003401003778,-0.00002348795533,-0.00000687316060,0.08178603649139,0.00856095552444,0.01238852739334,9.81471633911133,1.02735567092896,1.48668265342712,-0.46769031882286,-0.32299548387527,-0.09451653063297,-1.52148437500000,0.39501953125000,-0.40185546875000,0
124,417402923,-0.630035,0.300913,0.578263,0.422054,1.00000000000000,-0.00002911314368,-0.00002723746002,-0.00002341717482,0.08185505867004,0.00843620300293,0.01234894990921,9.82299900054932,1.01238477230072,1.48193311691284,-0.40035048127174,-0.37455695867538,-0.32202219963074,-1.52343750000000,0.39404296875000,-0.40380859375000,0
125,417411256,-0.630006,0.300907,0.578291,0.422064,1.00000000000000,-0.00002408772707,-0.00002409704030,-0.00004295445979,0.08179551362991,0.00836950540543,0.01253664493561,9.81585216522217,1.00438070297241,1.50445771217346,-0.33124324679375,-0.33137136697769,-0.59068983793259,-1.52050781250000,0.39453125000000,-0.40478515625000,0
126,417419589,-0.629967,0.300875,0.578337,0.422082,1.00000000000000,-0.00000743009150,-0.00002989545465,-0.00007348135114,0.08171397447586,0.00839471817017,0.01258379220963,9.80606842041016,1.00740635395050,1.51011538505554,-0.10217519104481,-0.41110846400261,-1.01048171520233,-1.52148437500000,0.39550781250000,-0.40136718750000,0
127,417427922,-0.629932,0.300821,0.578390,0.422099,1.00000000000000,0.00001094955951,-0.00002060085535,-0.00008464418352,0.08174377679825,0.00878661870956,0.01254588365555,9.80964469909668,1.05443632602692,1.50556612014771,0.15057326853275,-0.28329345583916,-1.16398763656616,-1.52099609375000,0.39648437500000,-0.40087890625000,0
128,417436255,-0.629900,0.300772,0.578444,0.422107,1.00000000000000,0.00001480896026,-0.00002571567893,-0.00007645040751,0.08179092407227,0.00918215513229,0.01258325576782,9.81530284881592,1.10190260410309,1.51005101203918,0.20364595949650,-0.35363012552261,-1.05131077766418,-1.52343750000000,0.40039062500000,-0.40234375000000,0
129,417444588,-0.629866,0.300739,0.578492,0.422116,1.00000000000000,-0.00000000186265,-0.00002828240395,-0.00006639771163,0.08175516128540,0.00925886631012,0.01264578104019,9.81100940704346,1.11110818386078,1.51755428314209,-0.00002561423753,-0.38892656564713,-0.91307067871094,-1.51953125000000,0.39550781250000,-0.40380859375000,0
130,417452921,-0.629842,0.300716,0.578528,0.422120,1.00000000000000,-0.00000403635204,-0.00002265907824,-0.00004983320832,0.08190208673477,0.00930982828140,0.01258277893066,9.82864284515381,1.11722397804260,1.50999379158020,-0.05550604686141,-0.31159716844559,-0.68528324365616,-1.52001953125000,0.39355468750000,-0.40332031250000,0
131,417461254,-0.629817,0.300706,0.578561,0.422119,1.00000000000000,-0.00001176074147,-0.00002601370215,-0.00003772787750,0.08184796571732,0.00922578573227,0.01249963045120,9.82214832305908,1.10713851451874,1.50001549720764,-0.16172827780247,-0.35772842168808,-0.51881629228592,-1.51708984375000,0.39941406250000,-0.40087890625000,0
132,417469587,-0.629802,0.300702,0.578585,0.422111,1.00000000000000,-0.00001223012805,-0.00002123229206,-0.00002416968346,0.08168590068817,0.00896084308624,0.01247388124466,9.80269908905029,1.07534408569336,1.49692547321320,-0.16818305850029,-0.29197666049004,-0.33237028121948,-1.52246093750000,0.39843750000000,-0.40380859375000,0
133,417477920,-0.629789,0.300701,0.578615,0.422089,1.00000000000000,-0.00000251829624,-0.00002783350646,-0.00001422315836,0.08174258470535,0.00917553901672,0.01242798566818,9.80950260162354,1.10110843181610,1.49141788482666,-0.03463044390082,-0.38275352120399,-0.19559028744698,-1.52343750000000,0.39599609375000,-0.40234375000000,0
134,417486253,-0.629772,0.300713,0.578650,0.422060,1.00000000000000,-0.00000636652112,-0.00004222244024,-0.00000521913171,0.08163481950760,0.00933808088303,0.01260364055634,9.79657077789307,1.12061429023743,1.51249742507935,-0.08754944801331,-0.58062344789505,-0.07177108526230,-1.52148437500000,0.39453125000000,-0.40283203125000,0
135,417494586,-0.629747,0.300735,0.578681,0.422038,1.00000000000000,-0.00002006441355,-0.00004529207945,-0.00000590644777,0.08166760206223,0.00910109281540,0.01289188861847,9.80050373077393,1.09217453002930,1.54708850383759,-0.27591654658318,-0.62283575534821,-0.08122274279594,-1.52099609375000,0.39404296875000,-0.40380859375000,0
136,417502919,-0.629721,0.300759,0.578711,0.422018,1.00000000000000,-0.00002380274236,-0.00004611164331,-0.00000647455454,0.08188492059708,0.00885671377182,0.01250106096268,9.82658290863037,1.06284809112549,1.50018715858459,-0.32732430100441,-0.63410598039627,-0.08903507888317,-1.52050781250000,0.39599609375000,-0.40283203125000,0
137,417511252,-0.629695,0.300777,0.578747,0.421994,1.00000000000000,-0.00001529231668,-0.00004791654646,-0.00000857934356,0.08175945281982,0.00896495580673,0.01238435506821,9.81152629852295,1.07583761215210,1.48618197441101,-0.21029286086559,-0.65892618894577,-0.11797916889191,-1.52294921875000,0.39501953125000,-0.40087890625000,0
138,417519585,-0.629679,0.300791,0.578768,0.421979,1.00000000000000,-0.00002087838948,-0.00002974271774,-0.00000900588930,0.08194249868393,0.00885134935379,0.01227509975433,9.83349227905273,1.06220400333405,1.47307074069977,-0.28710994124413,-0.40900808572769,-0.12384481728077,-1.51855468750000,0.39453125000000,-0.40380859375000,0
139,417527918,-0.629652,0.300809,0.578798,0.421966,1.00000000000000,-0.00002386234701,-0.00004055723548,-0.00001444853842,0.08182424306870,0.00871938467026,0.01231759786606,9.81930160522461,1.04636788368225,1.47817075252533,-0.32814395427704,-0.55772429704666,-0.19868962466717,-1.52197265625000,0.39404296875000,-0.40087890625000,0
140,417536251,-0.629629,0.300816,0.578829,0.421953,1.00000000000000,-0.00001553073525,-0.00003681704402,-0.00001975521445,0.08175611495972,0.00916987657547,0.01247054338455,9.81112575531006,1.10042917728424,1.49652493000031,-0.21357147395611,-0.50629091262817,-0.27166455984116,-1.52246093750000,0.39697265625000,-0.40087890625000,0
141,417544584,-0.629598,0.300844,0.578855,0.421945,1.00000000000000,-0.00003630854189,-0.00004334561527,-0.00001241080463,0.08165931701660,0.00896334648132,0.01253306865692,9.79950904846191,1.07564449310303,1.50402832031250,-0.49929824471474,-0.59606879949570,-0.17066763341427,-1.52050781250000,0.39306640625000,-0.40478515625000,0
142,417552917,-0.629580,0.300865,0.578873,0.421931,1.00000000000000,-0.00002825260162,-0.00003174319863,-0.00000503286719,0.08156567811966,0.00887423753738,0.01247280836105,9.78827190399170,1.06495106220245,1.49679672718048,-0.38851669430733,-0.43651777505875,-0.06920965760946,-1.51904296875000,0.39550781250000,-0.40283203125000,0
143,417561250,-0.629559,0.300882,0.578891,0.421925,1.00000000000000,-0.00003028661013,-0.00002744421363,-0.00001305900514,0.08157306909561,0.00919395685196,0.01243859529495,9.78915882110596,1.10331892967224,1.49269104003906,-0.41648742556572,-0.37740015983582,-0.17958138883114,-1.52246093750000,0.39697265625000,-0.40332031250000,0
144,417569583,-0.629545,0.300904,0.578902,0.421917,1.00000000000000,-0.00003352947533,-0.00002306140959,-0.00000428967178,0.08184641599655,0.00918561220169,0.01234346628189,9.82196235656738,1.10231745243073,1.48127508163452,-0.46108186244965,-0.31712988018990,-0.05898958817124,-1.51904296875000,0.39550781250000,-0.40136718750000,0
145,417577916,-0.629526,0.300947,0.578911,0.421900,1.00000000000000,-0.00004439055920,-0.00003485381603,0.00001202989370,0.08164548873901,0.00930094718933,0.01246565580368,9.79784965515137,1.11615824699402,1.49593842029572,-0.61043840646744,-0.47929352521896,0.16542953252792,-1.52246093750000,0.39746093750000,-0.40380859375000,0
146,417586249,-0.629519,0.300996,0.578909,0.421879,1.00000000000000,-0.00004572980106,-0.00002688169479,0.00002673920244,0.08198690414429,0.00919324159622,0.01231092214584,9.83882141113281,1.10323297977448,1.47736966609955,-0.62885510921478,-0.36966463923454,0.36770516633987,-1.52246093750000,0.39599609375000,-0.40087890625000,0
147,417594582,-0.629511,0.301053,0.578903,0.421860,1.00000000000000,-0.00005524419248,-0.00002541579306,0.00003089848906,0.08207666873932,0.00911277532578,0.01246309280396,9.84959316253662,1.09357690811157,1.49563062191010,-0.75969254970551,-0.34950622916222,0.42490172386169,-1.52636718750000,0.39404296875000,-0.40039062500000,0
148,417602915,-0.629499,0.301116,0.578892,0.421847,1.00000000000000,-0.00006538443267,-0.00002736970782,0.00002944935113,0.08199512958527,0.00881618261337,0.01236575841904,9.83980846405029,1.05798411369324,1.48395025730133,-0.89913648366928,-0.37637555599213,0.40497383475304,-1.52001953125000,0.39453125000000,-0.40234375000000,0
149,417611248,-0.629495,0.301171,0.578885,0.421823,1.00000000000000,-0.00004973262548,-0.00002250261605,0.00003485288471,0.08185571432114,0.00896525382996,0.01231849193573,9.82307815551758,1.07587337493896,1.47827804088593,-0.68390011787415,-0.30944558978081,0.47928076982498,-1.52343750000000,0.39794921875000,-0.40234375000000,0
150,417619581,-0.629492,0.301236,0.578862,0.421813,1.00000000000000,-0.00007024221122,-0.00001519359648,0.00003585685045,0.08171921968460,0.00891745090485,0.01236253976822,9.80669784545898,1.07013678550720,1.48356342315674,-0.96593838930130,-0.20893529057503,0.49308684468269,-1.51953125000000,0.39550781250000,-0.40039062500000,0
151,417627914,-0.629486,0.301304,0.578844,0.421797,1.00000000000000,-0.00006766431034,-0.00002041272819,0.00004041846842,0.08189964294434,0.00877976417542,0.01223820447922,9.82834911346436,1.05361378192902,1.46864318847656,-0.93048828840256,-0.28070640563965,0.55581611394882,-1.52343750000000,0.39697265625000,-0.40136718750000,0
152,417636247,-0.629480,0.301366,0.578835,0.421775,1.00000000000000,-0.00005730986595,-0.00002772733569,0.00003690924495,0.08170217275620,0.00880640745163,0.01218962669373,9.80465221405029,1.05681097507477,1.46281385421753,-0.78809881210327,-0.38129350543022,0.50755888223648,-1.52050781250000,0.39550781250000,-0.40039062500000,0
153,417644580,-0.629483,0.301424,0.578827,0.421739,1.00000000000000,-0.00004272535443,-0.00002297572792,0.00004687439650,0.08199846744537,0.00901156663895,0.01247817277908,9.84020900726318,1.08143115043640,1.49744057655334,-0.58753925561905,-0.31595158576965,0.64459502696991,-1.52148437500000,0.39697265625000,-0.40234375000000,0
154,417652913,-0.629488,0.301476,0.578821,0.421703,1.00000000000000,-0.00003778189421,-0.00002296268940,0.00004434119910,0.08192884922028,0.00889188051224,0.01222419738770,9.83185482025146,1.06706821918488,1.46696221828461,-0.51955914497375,-0.31577229499817,0.60975968837738,-1.51953125000000,0.39794921875000,-0.40136718750000,0
155,417661246,-0.629488,0.301520,0.578823,0.421669,1.00000000000000,-0.00003215670586,-0.00002532266080,0.00003335345536,0.08191186189651,0.00875133275986,0.01240998506546,9.82981586456299,1.05020189285278,1.48925769329071,-0.44220414757729,-0.34822550415993,0.45866128802299,-1.52050781250000,0.39648437500000,-0.39843750000000,0
156,417669579,-0.629487,0.301564,0.578821,0.421642,1.00000000000000,-0.00003781914711,-0.00002219155431,0.00003025587648,0.08169031143188,0.00870966911316,0.01258057355881,9.80322837829590,1.04520201683044,1.50972914695740,-0.52007144689560,-0.30516800284386,0.41606485843658,-1.52050781250000,0.39892578125000,-0.39892578125000,0
157,417677912,-0.629481,0.301596,0.578834,0.421610,1.00000000000000,-0.00002239830792,-0.00002996623516,0.00001919735223,0.08163213729858,0.00866866111755,0.01231306791306,9.79624748229980,1.04028081893921,1.47762715816498,-0.30801117420197,-0.41208180785179,0.26399311423302,-1.52099609375000,0.39843750000000,-0.40283203125000,0
158,417686245,-0.629468,0.301613,0.578863,0.421579,1.00000000000000,-0.00000985898077,-0.00003865361214,0.00000167172402,0.08170521259308,0.00871002674103,0.01236569881439,9.80501651763916,1.04524493217468,1.48394310474396,-0.13557612895966,-0.53154659271240,0.02298877201974,-1.51953125000000,0.39746093750000,-0.39843750000000,0
159,417694578,-0.629449,0.301636,0.578882,0.421563,1.00000000000000,-0.00002794526517,-0.00003278814256,-0.00000212155282,0.08155471086502,0.00874418020248,0.01235193014145,9.78695583343506,1.04934346675873,1.48229074478149,-0.38429033756256,-0.45088735222816,-0.02917461283505,-1.52246093750000,0.39794921875000,-0.39941406250000,0
160,417702911,-0.629435,0.301660,0.578899,0.421544,1.00000000000000,-0.00002560578287,-0.00003077462316,0.00000184867531,0.08163172006607,0.00872141122818,0.01213401556015,9.79619789123535,1.04661118984222,1.45614004135132,-0.35211884975433,-0.42319837212563,0.02542212791741,-1.52246093750000,0.39746093750000,-0.39843750000000,0
161,417711244,-0.629417,0.301686,0.578918,0.421525,1.00000000000000,-0.00002814643085,-0.00003463961184,0.00000037159771,0.08156901597977,0.00884908437729,0.01232814788818,9.78867244720459,1.06193256378174,1.47943675518036,-0.38705670833588,-0.47634795308113,0.00511003984138,-1.52148437500000,0.39794921875000,-0.40429687500000,0
162,417719577,-0.629403,0.301711,0.578931,0.421511,1.00000000000000,-0.00003114528954,-0.00002717040479,0.00000030826777,0.08164733648300,0.00884395837784,0.01222878694534,9.79807186126709,1.06131732463837,1.46751296520233,-0.42829561233521,-0.37363484501839,0.00423915591091,-1.51953125000000,0.39453125000000,-0.39941406250000,0
163,417727910,-0.629391,0.301730,0.578948,0.421492,1.00000000000000,-0.00002215243876,-0.00002703256905,0.00000048894435,0.08175873756409,0.00896179676056,0.01221162080765,9.81144046783447,1.07545852661133,1.46545302867889,-0.30463010072708,-0.37173938751221,0.00672373641282,-1.51855468750000,0.39892578125000,-0.40136718750000,0
164,417736243,-0.629388,0.301752,0.578960,0.421464,1.00000000000000,-0.00001863949001,-0.00002316199243,0.00001257937402,0.08184260129929,0.00932687520981,0.01227867603302,9.82150459289551,1.11926972866058,1.47350001335144,-0.25632163882256,-0.31851297616959,0.17298573255539,-1.52392578125000,0.39550781250000,-0.39843750000000,0
165,417744576,-0.629383,0.301795,0.578958,0.421444,1.00000000000000,-0.00004176422954,-0.00002146698534,0.00002338644117,0.08197879791260,0.00908195972443,0.01251637935638,9.83784866333008,1.08987867832184,1.50202548503876,-0.57432234287262,-0.29520404338837,0.32159951329231,-1.52148437500000,0.39697265625000,-0.40234375000000,0
166,417752909,-0.629386,0.301834,0.578957,0.421413,1.00000000000000,-0.00003149732947,-0.00001881457865,0.00003018882126,0.08191841840744,0.00867778062820,0.01234340667725,9.83060169219971,1.04137551784515,1.48126733303070,-0.43313670158386,-0.25872936844826,0.41514268517494,-1.52392578125000,0.39794921875000,-0.39892578125000,0
167,417761242,-0.629394,0.301852,0.578967,0.421374,1.00000000000000,-0.00000725872815,-0.00001689977944,0.00002300832421,0.08207643032074,0.00873959064484,0.01215064525604,9.84956455230713,1.04879271984100,1.45813560485840,-0.09981866925955,-0.23239792883396,0.31639981269836,-1.51953125000000,0.39648437500000,-0.39746093750000,0
168,417769575,-0.629404,0.301877,0.578966,0.421343,1.00000000000000,-0.00001959688962,-0.00000964850187,0.00002530496567,0.08203369379044,0.00895410776138,0.01229971647263,9.84443664550781,1.07453584671021,1.47602486610413,-0.26948741078377,-0.13268174231052,0.34798222780228,-1.52050781250000,0.39941406250000,-0.40039062500000,0
169,417777908,-0.629413,0.301909,0.578962,0.421313,1.00000000000000,-0.00002711638808,-0.00001024454832,0.00002971384674,0.08183717727661,0.00872212648392,0.01212722063065,9.82085323333740,1.04669702053070,1.45532453060150,-0.37289202213287,-0.14087828993797,0.40861102938652,-1.52294921875000,0.39697265625000,-0.40087890625000,0
170,417786241,-0.629421,0.301933,0.578960,0.421285,1.00000000000000,-0.00002185069025,-0.00000915490091,0.00002284254879,0.08185750246048,0.00852358341217,0.01238822937012,9.82329273223877,1.02287089824677,1.48664689064026,-0.30048057436943,-0.12589395046234,0.31412017345428,-1.52197265625000,0.39746093750000,-0.39746093750000,0
171,417794574,-0.629436,0.301939,0.578960,0.421258,1.00000000000000,-0.00000774115324,0.00000298675150,0.00001389253885,0.08190143108368,0.00851297378540,0.01216608285904,9.82856369018555,1.02159762382507,1.45998823642731,-0.10645275563002,0.04107242077589,0.19104376435280,-1.52050781250000,0.39892578125000,-0.39843750000000,0
172,417802907,-0.629456,0.301933,0.578969,0.421222,1.00000000000000,0.00000904034823,0.00000095460564,0.00001221429557,0.08160740137100,0.00893294811249,0.01224124431610,9.79327869415283,1.07199656963348,1.46900796890259,0.12431868910789,0.01312729623169,0.16796533763409,-1.52343750000000,0.39892578125000,-0.40039062500000,0
173,417811240,-0.629477,0.301945,0.578969,0.421182,1.00000000000000,-0.00000249035656,0.00000002700835,0.00002823490649,0.08176964521408,0.00925487279892,0.01257669925690,9.81274890899658,1.11062908172607,1.50926411151886,-0.03424623236060,0.00037140637869,0.38827335834503,-1.52441406250000,0.39550781250000,-0.39990234375000,0
174,417819573,-0.629496,0.301969,0.578962,0.421145,1.00000000000000,-0.00001622177660,-0.00000268965960,0.00003412645310,0.08191174268723,0.00904417037964,0.01242607831955,9.82980155944824,1.08534383773804,1.49118888378143,-0.22307436168194,-0.03698695078492,0.46929121017456,-1.51904296875000,0.39550781250000,-0.40136718750000,0
175,417827906,-0.629510,0.301979,0.578965,0.421113,1.00000000000000,-0.00000714696944,-0.00000330246985,0.00001851562411,0.08172392845154,0.00872427225113,0.01248317956924,9.80726337432861,1.04695451259613,1.49804139137268,-0.09828181564808,-0.04541403800249,0.25461831688881,-1.52148437500000,0.39990234375000,-0.40087890625000,0
176,417836239,-0.629524,0.301989,0.578958,0.421093,1.00000000000000,-0.00001768767834,0.00000673439354,0.00001267436892,0.08189874887466,0.00886279344559,0.01222431659698,9.82824230194092,1.06357800960541,1.46697723865509,-0.24323277175426,0.09260825812817,0.17429204285145,-1.52001953125000,0.39990234375000,-0.40087890625000,0
177,417844572,-0.629533,0.302010,0.578948,0.421079,1.00000000000000,-0.00003167055547,0.00000307615846,0.00001519452780,0.08185839653015,0.00889754295349,0.01246744394302,9.82339954376221,1.06774783134460,1.49615299701691,-0.43551883101463,0.04230190813541,0.20894809067249,-1.52197265625000,0.39990234375000,-0.39746093750000,0
178,417852905,-0.629541,0.302039,0.578936,0.421064,1.00000000000000,-0.00003736838698,-0.00000103004277,0.00002120342106,0.08175826072693,0.00875753164291,0.01237267255783,9.81138324737549,1.05094575881958,1.48477995395660,-0.51387274265289,-0.01416467223316,0.29157963395119,-1.52148437500000,0.39990234375000,-0.39843750000000,0
179,417861238,-0.629551,0.302069,0.578916,0.421054,1.00000000000000,-0.00004319846630,0.00000779423863,0.00002061482519,0.08187049627304,0.00864213705063,0.01233190298080,9.82485198974609,1.03709781169891,1.47988748550415,-0.59404528141022,0.10718276351690,0.28348553180695,-1.52148437500000,0.39501953125000,-0.40087890625000,0
180,417869571,-0.629559,0.302101,0.578897,0.421046,1.00000000000000,-0.00004569999874,0.00000382121652,0.00002003554255,0.08203029632568,0.00872081518173,0.01216489076614,9.84402847290039,1.04653966426849,1.45984518527985,-0.62844520807266,0.05254760012031,0.27551952004433,-1.51806640625000,0.39746093750000,-0.40136718750000,0
181,417877904,-0.629572,0.302116,0.578877,0.421043,1.00000000000000,-0.00003742799163,0.00001726765186,0.00000884663314,0.08201509714127,0.00875109434128,0.01232975721359,9.84220504760742,1.05017328262329,1.47962999343872,-0.51469242572784,0.23745675384998,0.12165482342243,-1.52343750000000,0.39843750000000,-0.39794921875000,0
182,417886237,-0.629590,0.302130,0.578856,0.421034,1.00000000000000,-0.00003128685057,0.00001895148307,0.00001520011574,0.08179020881653,0.00892019271851,0.01219999790192,9.81521701812744,1.07046592235565,1.46405816078186,-0.43024235963821,0.26061207056046,0.20902498066425,-1.52246093750000,0.39648437500000,-0.39990234375000,0
183,417894570,-0.629619,0.302157,0.578823,0.421017,1.00000000000000,-0.00003768876195,0.00002564396709,0.00003534089774,0.08209174871445,0.00910979509354,0.01234394311905,9.85140323638916,1.09321904182434,1.48133230209351,-0.51827836036682,0.35264396667480,0.48599165678024,-1.52148437500000,0.39892578125000,-0.40039062500000,0
184,417902903,-0.629652,0.302200,0.578780,0.420997,1.00000000000000,-0.00004785880446,0.00002620834857,0.00005182530731,0.08203029632568,0.00913602113724,0.01237583160400,9.84402847290039,1.09636628627777,1.48515903949738,-0.65813219547272,0.36040508747101,0.71267771720886,-1.52001953125000,0.40136718750000,-0.40039062500000,0
185,417911236,-0.629675,0.302253,0.578740,0.420979,1.00000000000000,-0.00005775131285,0.00001510139555,0.00005111936480,0.08206290006638,0.00852668285370,0.01223766803741,9.84794139862061,1.02324283123016,1.46857881546021,-0.79416936635971,0.20766742527485,0.70296996831894,-1.52197265625000,0.39892578125000,-0.39892578125000,0
186,417919569,-0.629700,0.302273,0.578707,0.420972,1.00000000000000,-0.00004000589252,0.00002803746611,0.00002383347601,0.08183705806732,0.00838738679886,0.01229828596115,9.82083892822266,1.00652658939362,1.47585320472717,-0.55014252662659,0.38555827736855,0.32774692773819,-1.52050781250000,0.39990234375000,-0.39990234375000,0
187,417927902,-0.629732,0.302265,0.578696,0.420945,1.00000000000000,0.00000134203583,0.00002584699541,0.00001639779657,0.08187520503998,0.00872117280960,0.01247763633728,9.82541656494141,1.04658257961273,1.49737620353699,0.01845505647361,0.35543593764305,0.22549487650394,-1.52441406250000,0.39990234375000,-0.39843750000000,0
188,417936235,-0.629757,0.302287,0.578668,0.420931,1.00000000000000,-0.00003533996642,0.00002235639840,0.00002762209624,0.08206337690353,0.00888061523438,0.01247107982635,9.84799861907959,1.06571638584137,1.49658930301666,-0.48597884178162,0.30743485689163,0.37984627485275,-1.52099609375000,0.39843750000000,-0.39843750000000,0
189,417944568,-0.629781,0.302301,0.578642,0.420921,1.00000000000000,-0.00003110244870,0.00002597365528,0.00001933146268,0.08192801475525,0.00852209329605,0.01220262050629,9.83175468444824,1.02269208431244,1.46437287330627,-0.42770648002625,0.35717767477036,0.26583731174469,-1.52343750000000,0.39843750000000,-0.39941406250000,0
190,417952901,-0.629804,0.302288,0.578624,0.420920,1.00000000000000,-0.00001727975905,0.00003432761878,-0.00000460073352,0.08196341991425,0.00845712423325,0.01225936412811,9.83600139617920,1.01489508152008,1.47118222713470,-0.23762324452400,0.47205755114555,-0.06326715648174,-1.52246093750000,0.39990234375000,-0.39843750000000,0
191,417961234,-0.629828,0.302267,0.578600,0.420933,1.00000000000000,-0.00002236478031,0.00004559103400,-0.00001572631299,0.08195537328720,0.00863796472549,0.01213246583939,9.83503723144531,1.03659713268280,1.45595407485962,-0.30755010247231,0.62694680690765,-0.21626099944115,-1.52246093750000,0.39990234375000,-0.39990234375000,0
192,417969567,-0.629848,0.302240,0.578576,0.420956,1.00000000000000,-0.00002480112016,0.00004869606346,-0.00002754479647,0.08177077770233,0.00844854116440,0.01221591234207,9.81288623809814,1.01386582851410,1.46596813201904,-0.34105354547501,0.66964578628540,-0.37878334522247,-1.52001953125000,0.40039062500000,-0.39892578125000,0
193,417977900,-0.629862,0.302212,0.578560,0.420975,1.00000000000000,-0.00002110935748,0.00004130136222,-0.00003002583981,0.08147495985031,0.00872337818146,0.01234549283981,9.77738571166992,1.04684722423553,1.48151826858521,-0.29028612375259,0.56795728206635,-0.41290146112442,-1.52197265625000,0.39941406250000,-0.39990234375000,0
194,417986233,-0.629879,0.302182,0.578547,0.420990,1.00000000000000,-0.00001455657184,0.00003741029650,-0.00002850219607,0.08173501491547,0.00885683298111,0.01232463121414,9.80859375000000,1.06286239624023,1.47901475429535,-0.20017524063587,0.51444911956787,-0.39194899797440,-1.52050781250000,0.39794921875000,-0.39990234375000,0
195,417994566,-0.629897,0.302157,0.578540,0.420990,1.00000000000000,-0.00000611133873,0.00003081467003,-0.00001750886440,0.08170872926712,0.00876778364182,0.01221597194672,9.80543899536133,1.05217599868774,1.46597516536713,-0.08404030650854,0.42374908924103,-0.24077379703522,-1.52050781250000,0.40136718750000,-0.39990234375000,0
196,418002899,-0.629914,0.302136,0.578534,0.420989,1.00000000000000,-0.00000894442201,0.00002619903535,-0.00001579150558,0.08179461956024,0.00892210006714,0.01228564977646,9.81574630737305,1.07069480419159,1.47433686256409,-0.12299957126379,0.36027705669403,-0.21715749800205,-1.52343750000000,0.39941406250000,-0.40087890625000,0
197,418011232,-0.629917,0.302134,0.578530,0.420990,1.00000000000000,-0.00002456270158,0.00000946130604,-0.00001149997115,0.08159250020981,0.00877976417542,0.01238816976547,9.79149055480957,1.05361378192902,1.48663973808289,-0.33777490258217,0.13010750710964,-0.15814228355885,-1.52441406250000,0.39990234375000,-0.40136718750000,0
198,418019565,-0.629922,0.302117,0.578542,0.420979,1.00000000000000,-0.00000132247806,0.00000291597098,-0.00001749582589,0.08160954713821,0.00838291645050,0.01236349344254,9.79353713989258,1.00599014759064,1.48367846012115,-0.01818610541523,0.04009908437729,-0.24059450626373,-1.52050781250000,0.39892578125000,-0.39843750000000,0
199,418027898,-0.629923,0.302098,0.578557,0.420971,1.00000000000000,-0.00000195950270,0.00000165309757,-0.00002289935946,0.08174824714661,0.00847220420837,0.01231628656387,9.81018161773682,1.01670515537262,1.47801339626312,-0.02694617770612,0.02273263409734,-0.31490141153336,-1.52246093750000,0.39892578125000,-0.39892578125000,0
200,418036231,-0.629918,0.302062,0.578577,0.420976,1.00000000000000,0.00000184867531,0.00000481959432,-0.00004552304745,0.08182597160339,0.00861066579819,0.01229566335678,9.81950855255127,1.03332114219666,1.47553849220276,0.02542212978005,0.06627683341503,-0.62601196765900,-1.52050781250000,0.39794921875000,-0.40039062500000,0
201,418044564,-0.629916,0.302041,0.578589,0.420978,1.00000000000000,-0.00000817887485,0.00000607874244,-0.00002988800406,0.08170074224472,0.00877457857132,0.01230555772781,9.80448055267334,1.05299150943756,1.47672593593597,-0.11247210204601,0.08359204232693,-0.41100597381592,-1.52294921875000,0.39941406250000,-0.40039062500000,0
202,418052897,-0.629917,0.302023,0.578597,0.420978,1.00000000000000,-0.00000948086381,0.00000602845103,-0.00002604722977,0.08166801929474,0.00875002145767,0.01232123374939,9.80055332183838,1.05004453659058,1.47860705852509,-0.13037645816803,0.08290046453476,-0.35818946361542,-1.52441406250000,0.39892578125000,-0.40185546875000,0
203,418061230,-0.629918,0.302007,0.578612,0.420968,1.00000000000000,-0.00000283867121,-0.00000033155084,-0.00001963786781,0.08158081769943,0.00892573595047,0.01238179206848,9.79008769989014,1.07113099098206,1.48587453365326,-0.03903609886765,-0.00455933390185,-0.27005091309547,-1.51953125000000,0.39794921875000,-0.40087890625000,0
204,418069563,-0.629920,0.302001,0.578613,0.420968,1.00000000000000,-0.00001971237361,0.00000708457083,-0.00001542083919,0.08162164688110,0.00886660814285,0.01237893104553,9.79498958587646,1.06403529644012,1.48553144931793,-0.27107542753220,0.09742373973131,-0.21206024289131,-1.52343750000000,0.40039062500000,-0.40087890625000,0
205,418077896,-0.629916,0.301998,0.578624,0.420960,1.00000000000000,-0.00001505389810,-0.00000602006912,-0.00001455470920,0.08162397146225,0.00882369279861,0.01242440938950,9.79526805877686,1.05888545513153,1.49098861217499,-0.20701424777508,-0.08278521150351,-0.20014962553978,-1.52001953125000,0.39794921875000,-0.40234375000000,0
206,418086229,-0.629921,0.302000,0.578635,0.420937,1.00000000000000,-0.00000713020563,-0.00000776536763,0.00000148918480,0.08156251907349,0.00881069898605,0.01235401630402,9.78789329528809,1.05732560157776,1.48254132270813,-0.09805129468441,-0.10678573697805,0.02047858014703,-1.52294921875000,0.39794921875000,-0.40136718750000,0
207,418094562,-0.629934,0.301992,0.578650,0.420902,1.00000000000000,0.00001077633351,-0.00000458396971,0.00000520516187,0.08182662725449,0.00930386781693,0.01223129034042,9.81958770751953,1.11650907993317,1.46781337261200,0.14819115400314,-0.06303662806749,0.07157897949219,-1.52001953125000,0.39794921875000,-0.40087890625000,0
208,418102895,-0.629950,0.302021,0.578644,0.420865,1.00000000000000,-0.00001867860556,-0.00000646896660,0.00003570597619,0.08184015750885,0.00943201780319,0.01255184412003,9.82121086120605,1.13188731670380,1.50628137588501,-0.25685957074165,-0.08895824104548,0.49101212620735,-1.52001953125000,0.40087890625000,-0.40039062500000,0
209,418111228,-0.629958,0.302068,0.578637,0.420830,1.00000000000000,-0.00003521144390,-0.00001619197428,0.00004221778363,0.08168435096741,0.00870919227600,0.01239544153214,9.80251312255859,1.04514479637146,1.48751235008240,-0.48421144485474,-0.22266452014446,0.58055943250656,-1.52050781250000,0.39892578125000,-0.39990234375000,0
210,418119561,-0.629965,0.302103,0.578638,0.420792,1.00000000000000,-0.00002262741327,-0.00001985765994,0.00003399606794,0.08169156312943,0.00871545076370,0.01233828067780,9.80337905883789,1.04589581489563,1.48065280914307,-0.31116169691086,-0.27307334542274,0.46749821305275,-1.51953125000000,0.39990234375000,-0.40332031250000,0
211,418127894,-0.629970,0.302150,0.578625,0.420769,1.00000000000000,-0.00004486739635,-0.00001010112464,0.00003472995013,0.08181482553482,0.00855237245560,0.01230484247208,9.81817150115967,1.02632570266724,1.47664010524750,-0.61699569225311,-0.13890600204468,0.47759026288986,-1.52197265625000,0.39941406250000,-0.40185546875000,0
212,418136227,-0.629975,0.302178,0.578618,0.420752,1.00000000000000,-0.00003415159881,-0.00000680983067,0.00001876149327,0.08186626434326,0.00854331254959,0.01226657629013,9.82434368133545,1.02523839473724,1.47204852104187,-0.46963697671890,-0.09364563971758,0.25799939036369,-1.51806640625000,0.40087890625000,-0.40039062500000,0
213,418144560,-0.629974,0.302195,0.578620,0.420739,1.00000000000000,-0.00002707168460,-0.00000790506601,0.00000383798033,0.08190023899078,0.00869029760361,0.01222747564316,9.82842063903809,1.04287731647491,1.46735560894012,-0.37227728962898,-0.10870680958033,0.05277812853456,-1.52441406250000,0.39843750000000,-0.40039062500000,0
214,418152893,-0.629980,0.302206,0.578618,0.420725,1.00000000000000,-0.00002308003604,-0.00000029057264,0.00000527594239,0.08187848329544,0.00890654325485,0.01237654685974,9.82581043243408,1.06882774829865,1.48524451255798,-0.31738597154617,-0.00399582041427,0.07255231589079,-1.52099609375000,0.39892578125000,-0.40039062500000,0
215,418161226,-0.629978,0.302234,0.578615,0.420710,1.00000000000000,-0.00003570877016,-0.00001107715070,0.00001295004040,0.08200001716614,0.00858122110367,0.01239269971848,9.84039497375488,1.02978765964508,1.48718333244324,-0.49105048179626,-0.15232785046101,0.17808295786381,-1.52246093750000,0.39990234375000,-0.39746093750000,0
216,418169559,-0.629976,0.302255,0.578612,0.420703,1.00000000000000,-0.00003617070615,-0.00000600703061,0.00000345800072,0.08205300569534,0.00854831933975,0.01249545812607,9.84675407409668,1.02583932876587,1.49951517581940,-0.49740281701088,-0.08260590583086,0.04755282402039,-1.52148437500000,0.39990234375000,-0.39892578125000,0
217,418177892,-0.629974,0.302276,0.578605,0.420702,1.00000000000000,-0.00004054792225,-0.00000128336251,0.00000181142241,0.08203041553497,0.00883072614670,0.01216691732407,9.84404277801514,1.05972945690155,1.46008837223053,-0.55759626626968,-0.01764820702374,0.02490984275937,-1.52246093750000,0.39990234375000,-0.39892578125000,0
218,418186225,-0.629968,0.302283,0.578604,0.420705,1.00000000000000,-0.00003377534449,-0.00000135041773,-0.00001298263669,0.08209949731827,0.00863116979599,0.01227265596390,9.85233306884766,1.03578174114227,1.47277748584747,-0.46446290612221,-0.01857031881809,-0.17853121459484,-1.52148437500000,0.40039062500000,-0.39746093750000,0
219,418194558,-0.629977,0.302288,0.578597,0.420699,1.00000000000000,-0.00002488493919,0.00001064408571,-0.00000060908496,0.08197975158691,0.00888091325760,0.01230198144913,9.83796310424805,1.06575214862823,1.47629666328430,-0.34220618009567,0.14637254178524,-0.00837585516274,-1.52050781250000,0.39892578125000,-0.40136718750000,0
220,418202891,-0.629983,0.302306,0.578577,0.420704,1.00000000000000,-0.00004533678293,0.00001321081072,0.00000379327685,0.08205598592758,0.00876975059509,0.01223361492157,9.84711170196533,1.05241203308105,1.46809244155884,-0.62345051765442,0.18166896700859,0.05216338858008,-1.52246093750000,0.39990234375000,-0.39990234375000,0
221,418211224,-0.629981,0.302312,0.578575,0.420705,1.00000000000000,-0.00003068149090,0.00000308360904,-0.00001017004251,0.08200389146805,0.00846445560455,0.01224702596664,9.84085941314697,1.01577544212341,1.46970164775848,-0.42191770672798,0.04240436479449,-0.13985373079777,-1.52294921875000,0.39892578125000,-0.39941406250000,0
222,418219557,-0.629980,0.302315,0.578578,0.420701,1.00000000000000,-0.00002299621701,-0.00000117532909,-0.00001025758684,0.08164441585541,0.00867497920990,0.01227921247482,9.79772090911865,1.04103910923004,1.47356438636780,-0.31623336672783,-0.01616258360445,-0.14105759561062,-1.52099609375000,0.39892578125000,-0.40234375000000,0
223,418227890,-0.629971,0.302325,0.578581,0.420703,1.00000000000000,-0.00003400072455,-0.00000628829002,-0.00001311674714,0.08160740137100,0.00860267877579,0.01237100362778,9.79327869415283,1.03236269950867,1.48457968235016,-0.46756219863892,-0.08647365123034,-0.18037544190884,-1.51953125000000,0.39843750000000,-0.40039062500000,0
224,418236223,-0.629972,0.302336,0.578579,0.420696,1.00000000000000,-0.00002844817936,-0.00000062771142,-0.00000145658851,0.08144044876099,0.00877708196640,0.01238363981247,9.77324390411377,1.05329191684723,1.48609614372253,-0.39120617508888,-0.00863199774176,-0.02003033272922,-1.52050781250000,0.39990234375000,-0.40136718750000,0
225,418244556,-0.629959,0.302354,0.578588,0.420690,1.00000000000000,-0.00003316067159,-0.00001821294427,-0.00000566244125,0.08166730403900,0.00870919227600,0.01239579916000,9.80046749114990,1.04514455795288,1.48755538463593,-0.45601022243500,-0.25045597553253,-0.07786726951599,-1.52099609375000,0.39794921875000,-0.39794921875000,0
226,418252889,-0.629948,0.302361,0.578598,0.420688,1.00000000000000,-0.00002687238157,-0.00001260824502,-0.00001616217196,0.08172446489334,0.00866043567657,0.01232367753983,9.80732727050781,1.03929376602173,1.47890031337738,-0.36953651905060,-0.17338275909424,-0.22225470840931,-1.51708984375000,0.40087890625000,-0.40380859375000,0
227,418261222,-0.629935,0.302383,0.578603,0.420683,1.00000000000000,-0.00003783404827,-0.00001672841609,-0.00000330805779,0.08190518617630,0.00870186090469,0.01227134466171,9.82901477813721,1.04426503181458,1.47262012958527,-0.52027630805969,-0.23004144430161,-0.04549087956548,-1.51953125000000,0.39941406250000,-0.40087890625000,0
228,418269555,-0.629928,0.302396,0.578607,0.420680,1.00000000000000,-0.00003161467612,-0.00000929459929,-0.00000866502523,0.08177846670151,0.00881427526474,0.01237720251083,9.81380748748779,1.05775523185730,1.48532354831696,-0.43475040793419,-0.12781502306461,-0.11915741115808,-1.52197265625000,0.39746093750000,-0.39843750000000,0
229,418277888,-0.629921,0.302414,0.578614,0.420669,1.00000000000000,-0.00002967752516,-0.00001413561404,-0.00000016950071,0.08190906047821,0.00879603624344,0.01238554716110,9.82948017120361,1.05556654930115,1.48632502555847,-0.40811160206795,-0.19438640773296,-0.00233089528047,-1.52197265625000,0.39990234375000,-0.40136718750000,0
230,418286221,-0.629914,0.302432,0.578619,0.420660,1.00000000000000,-0.00003036670387,-0.00001398287714,-0.00000092573464,0.08164256811142,0.00867587327957,0.01212996244431,9.79749965667725,1.04114675521851,1.45565342903137,-0.41758882999420,-0.19228604435921,-0.01273027434945,-1.52099609375000,0.39843750000000,-0.39892578125000,0
231,418294554,-0.629891,0.302456,0.578633,0.420657,1.00000000000000,-0.00003927573562,-0.00002847611904,-0.00001086294651,0.08158308267593,0.00857633352280,0.01243925094604,9.79036045074463,1.02920114994049,1.49276971817017,-0.54010176658630,-0.39159041643143,-0.14938220381737,-1.52148437500000,0.40039062500000,-0.39746093750000,0
232,418302887,-0.629877,0.302464,0.578645,0.420656,1.00000000000000,-0.00002867355943,-0.00001542828977,-0.00001790188253,0.08181625604630,0.00864058732986,0.01212960481644,9.81834316253662,1.03691184520721,1.45561075210571,-0.39430549740791,-0.21216267347336,-0.24617840349674,-1.52099609375000,0.40087890625000,-0.39746093750000,0
233,418311220,-0.629865,0.302474,0.578650,0.420660,1.00000000000000,-0.00003461912274,-0.00000886805356,-0.00001544691622,0.08184492588043,0.00872153043747,0.01228606700897,9.82178306579590,1.04662549495697,1.47438693046570,-0.47606617212296,-0.12194937467575,-0.21241883933544,-1.51953125000000,0.40039062500000,-0.39990234375000,0
234,418319553,-0.629849,0.302478,0.578661,0.420665,1.00000000000000,-0.00003090873361,-0.00001153349876,-0.00002395547926,0.08173310756683,0.00854593515396,0.01241844892502,9.80836486816406,1.02555310726166,1.49027335643768,-0.42504259943962,-0.15860331058502,-0.32942467927933,-1.52001953125000,0.39941406250000,-0.40234375000000,0
235,418327886,-0.629838,0.302475,0.578679,0.420659,1.00000000000000,-0.00001546740532,-0.00001405924559,-0.00002078711987,0.08178329467773,0.00871145725250,0.01221424341202,9.81438827514648,1.04541647434235,1.46576738357544,-0.21270060539246,-0.19333624839783,-0.28585484623909,-1.52197265625000,0.39941406250000,-0.40087890625000,0
236,418336219,-0.629828,0.302482,0.578686,0.420660,1.00000000000000,-0.00002977624536,-0.00000894628465,-0.00001611746848,0.08174878358841,0.00871729850769,0.01230221986771,9.81024646759033,1.04611766338348,1.47632563114166,-0.40946915745735,-0.12302517145872,-0.22163996100426,-1.52001953125000,0.39990234375000,-0.39990234375000,0
237,418344552,-0.629816,0.302484,0.578701,0.420655,1.00000000000000,-0.00002092681825,-0.00001394748688,-0.00001755356789,0.08203125000000,0.00875669717789,0.01229482889175,9.84414291381836,1.05084562301636,1.47543835639954,-0.28777593374252,-0.19179941713810,-0.24138857424259,-1.52148437500000,0.39990234375000,-0.40039062500000,0
238,418352885,-0.629806,0.302497,0.578715,0.420643,1.00000000000000,-0.00002275034785,-0.00002014823258,-0.00000646524131,0.08188796043396,0.00867164134979,0.01229757070541,9.82694721221924,1.04063856601715,1.47576737403870,-0.31285226345062,-0.27706915140152,-0.08890700340271,-1.52148437500000,0.40087890625000,-0.40185546875000,0
239,418361218,-0.629800,0.302496,0.578726,0.420635,1.00000000000000,-0.00001698546112,-0.00000759400427,-0.00001382827759,0.08220803737640,0.00877028703690,0.01231598854065,9.86535835266113,1.05247640609741,1.47797739505768,-0.23357622325420,-0.10442923754454,-0.19016008079052,-1.52050781250000,0.39941406250000,-0.39990234375000,0
240,418369551,-0.629794,0.302507,0.578735,0.420626,1.00000000000000,-0.00002446956933,-0.00001314468682,-0.00000629574060,0.08191573619843,0.00868749618530,0.01223653554916,9.83028125762939,1.04254114627838,1.46844291687012,-0.33649414777756,-0.18075963854790,-0.08657611161470,-1.52197265625000,0.39990234375000,-0.39941406250000,0
241,418377884,-0.629779,0.302510,0.578756,0.420615,1.00000000000000,-0.00001635402441,-0.00002131424844,-0.00001630932093,0.08171164989471,0.00852495431900,0.01219242811203,9.80578994750977,1.02303540706635,1.46314978599548,-0.22489297389984,-0.29310363531113,-0.22427822649479,-1.52294921875000,0.39990234375000,-0.40087890625000,0
242,418386217,-0.629766,0.302521,0.578775,0.420602,1.00000000000000,-0.00001947581768,-0.00002441368997,-0.00000953301787,0.08184969425201,0.00902777910233,0.01222163438797,9.82235431671143,1.08337724208832,1.46665477752686,-0.26782241463661,-0.33572572469711,-0.13109365105629,-1.52197265625000,0.40039062500000,-0.40185546875000,0
243,418394550,-0.629754,0.302544,0.578790,0.420582,1.00000000000000,-0.00002535432577,-0.00002789124846,0.00000335928053,0.08180880546570,0.00860339403152,0.01226156949997,9.81744861602783,1.03244853019714,1.47144711017609,-0.34866100549698,-0.38354760408401,0.04619527980685,-1.52246093750000,0.40136718750000,-0.40039062500000,0
244,418402883,-0.629737,0.302552,0.578814,0.420569,1.00000000000000,-0.00001751445234,-0.00002766214311,-0.00001498684287,0.08189296722412,0.00867933034897,0.01242154836655,9.82754802703857,1.04156124591827,1.49064528942108,-0.24085064232349,-0.38039699196815,-0.20609213411808,-1.52246093750000,0.40039062500000,-0.39892578125000,0
245,418411216,-0.629719,0.302550,0.578835,0.420568,1.00000000000000,-0.00002005137503,-0.00001842528582,-0.00002654641867,0.08181750774384,0.00865095853806,0.01231676340103,9.81849288940430,1.03815627098083,1.47807025909424,-0.27573722600937,-0.25337600708008,-0.36505407094955,-1.52099609375000,0.39794921875000,-0.39843750000000,0
246,418419549,-0.629699,0.302548,0.578856,0.420571,1.00000000000000,-0.00002228468657,-0.00001919083297,-0.00003075227141,0.08194339275360,0.00857234001160,0.01218396425247,9.83360004425049,1.02872192859650,1.46213412284851,-0.30644869804382,-0.26390346884727,-0.42289102077484,-1.52197265625000,0.39941406250000,-0.39794921875000,0
247,418427882,-0.629676,0.302527,0.578881,0.420587,1.00000000000000,-0.00001690164208,-0.00001024268568,-0.00005226023495,0.08198535442352,0.00854510068893,0.01217758655548,9.83863544464111,1.02545297145844,1.46136868000031,-0.23242352902889,-0.14085267484188,-0.71865850687027,-1.52050781250000,0.39892578125000,-0.39941406250000,0
248,418436215,-0.629657,0.302498,0.578910,0.420596,1.00000000000000,-0.00000613182783,-0.00001095980406,-0.00005269795656,0.08171331882477,0.00868439674377,0.01224404573441,9.80598831176758,1.04216909408569,1.46934425830841,-0.08432205766439,-0.15071417391300,-0.72467797994614,-1.52197265625000,0.39892578125000,-0.39941406250000,0
249,418444548,-0.629641,0.302479,0.578928,0.420608,1.00000000000000,-0.00001681223512,-0.00000437907875,-0.00004306808114,0.08213919401169,0.00884848833084,0.01223051548004,9.85709667205811,1.06186103820801,1.46772050857544,-0.23119409382343,-0.06021906435490,-0.59225231409073,-1.52148437500000,0.39746093750000,-0.39892578125000,0
250,418452881,-0.629629,0.302465,0.578936,0.420625,1.00000000000000,-0.00002583861351,0.00000212062150,-0.00003917887807,0.08183681964874,0.00889438390732,0.01223731040955,9.82081031799316,1.06736862659454,1.46853590011597,-0.35532063245773,0.02916180714965,-0.53876978158951,-1.52246093750000,0.39746093750000,-0.40234375000000,0
251,418461214,-0.629619,0.302448,0.578944,0.420642,1.00000000000000,-0.00002342462540,0.00000664126128,-0.00003989972174,0.08188599348068,0.00875920057297,0.01212704181671,9.82671165466309,1.05114603042603,1.45530307292938,-0.32212460041046,0.09132755547762,-0.54868251085281,-1.52294921875000,0.39892578125000,-0.39941406250000,0
252,418469547,-0.629618,0.302419,0.578953,0.420652,1.00000000000000,-0.00000952370465,0.00001342687756,-0.00003970414400,0.08191210031509,0.00885862112045,0.01226532459259,9.82984447479248,1.06307697296143,1.47189772129059,-0.13096559047699,0.18464021384716,-0.54599303007126,-1.52246093750000,0.40283203125000,-0.39794921875000,0
253,418477880,-0.629614,0.302409,0.578955,0.420662,1.00000000000000,-0.00002470612526,0.00000837910920,-0.00002619996667,0.08172541856766,0.00884157419205,0.01237297058105,9.80744171142578,1.06103122234344,1.48481571674347,-0.33974719047546,0.11522562801838,-0.36028981208801,-1.52148437500000,0.39599609375000,-0.39990234375000,0
254,418486213,-0.629612,0.302403,0.578956,0.420669,1.00000000000000,-0.00002495944500,0.00000611040741,-0.00002283789217,0.08191496133804,0.00878036022186,0.01245480775833,9.83018779754639,1.05368530750275,1.49463665485382,-0.34323075413704,0.08402750641108,-0.31405615806580,-1.52050781250000,0.39990234375000,-0.39941406250000,0
255,418494546,-0.629610,0.302399,0.578960,0.420668,1.00000000000000,-0.00002099946141,0.00000238884240,-0.00001642480493,0.08185261487961,0.00890517234802,0.01234108209610,9.82270622253418,1.06866323947906,1.48098945617676,-0.28877487778664,0.03285025432706,-0.22586633265018,-1.52148437500000,0.40087890625000,-0.40234375000000,0
256,418502879,-0.629608,0.302402,0.578962,0.420666,1.00000000000000,-0.00002488307655,-0.00000026077032,-0.00001144781709,0.08178281784058,0.00872629880905,0.01235157251358,9.81433010101318,1.04719769954681,1.48224782943726,-0.34218055009842,-0.00358599284664,-0.15742509067059,-1.52343750000000,0.39941406250000,-0.39892578125000,0
257,418511212,-0.629602,0.302399,0.578971,0.420666,1.00000000000000,-0.00002128817141,-0.00000299327075,-0.00001949258149,0.08192884922028,0.00843393802643,0.01238578557968,9.83185482025146,1.01211297512054,1.48635363578796,-0.29274511337280,-0.04116207733750,-0.26805299520493,-1.52197265625000,0.39941406250000,-0.39990234375000,0
258,418519545,-0.629597,0.302382,0.578985,0.420666,1.00000000000000,-0.00000929832458,-0.00000144168735,-0.00002965331078,0.08198302984238,0.00852417945862,0.01224881410599,9.83835601806641,1.02294242382050,1.46991634368896,-0.12786625325680,-0.01982541568577,-0.40777859091759,-1.52343750000000,0.39990234375000,-0.40087890625000,0
259,418527878,-0.629580,0.302361,0.579009,0.420674,1.00000000000000,-0.00001194886863,-0.00000800006092,-0.00004406273365,0.08172464370728,0.00870126485825,0.01210856437683,9.80734920501709,1.04419350624084,1.45308578014374,-0.16431531310081,-0.11001313477755,-0.60593038797379,-1.51953125000000,0.39892578125000,-0.39843750000000,0
260,418536211,-0.629565,0.302340,0.579030,0.420682,1.00000000000000,-0.00001171417534,-0.00000783428550,-0.00004220567644,0.08181113004684,0.00892251729965,0.01226896047592,9.81772613525391,1.07074463367462,1.47233426570892,-0.16108794510365,-0.10773348063231,-0.58039295673370,-1.51953125000000,0.39843750000000,-0.39941406250000,0
261,418544544,-0.629544,0.302332,0.579047,0.420697,1.00000000000000,-0.00002812221646,-0.00001004897058,-0.00004096142948,0.08179122209549,0.00888252258301,0.01219463348389,9.81533813476562,1.06594526767731,1.46341443061829,-0.38672369718552,-0.13818879425526,-0.56328260898590,-1.51904296875000,0.39892578125000,-0.39892578125000,0
262,418552877,-0.629535,0.302316,0.579056,0.420709,1.00000000000000,-0.00002056360245,0.00000335741788,-0.00003629177809,0.08181142807007,0.00878149271011,0.01221495866776,9.81776237487793,1.05382108688354,1.46585392951965,-0.28278115391731,0.04616965726018,-0.49906772375107,-1.52197265625000,0.39941406250000,-0.40039062500000,0
263,418561210,-0.629529,0.302305,0.579060,0.420719,1.00000000000000,-0.00002393499017,0.00000645127147,-0.00002931058407,0.08184260129929,0.00898748636246,0.01237213611603,9.82150459289551,1.07854139804840,1.48471558094025,-0.32914289832115,0.08871489763260,-0.40306562185287,-1.52246093750000,0.39843750000000,-0.39746093750000,0
264,418569543,-0.629524,0.302293,0.579067,0.420727,1.00000000000000,-0.00001994706690,0.00000383052975,-0.00002923980355,0.08185887336731,0.00869971513748,0.01230067014694,9.82345676422119,1.04400753974915,1.47613930702209,-0.27430284023285,0.05267567187548,-0.40209224820137,-1.52099609375000,0.39794921875000,-0.39990234375000,0
265,418577876,-0.629514,0.302282,0.579081,0.420730,1.00000000000000,-0.00001673959196,-0.00000431947410,-0.00002898834646,0.08181190490723,0.00876343250275,0.01214259862900,9.81782150268555,1.05165386199951,1.45717036724091,-0.23019511997700,-0.05939939990640,-0.39863431453705,-1.52050781250000,0.39892578125000,-0.39794921875000,0
266,418586209,-0.629506,0.302265,0.579095,0.420735,1.00000000000000,-0.00001392699778,-0.00000146031380,-0.00003409758210,0.08185023069382,0.00866162776947,0.01223772764206,9.82242012023926,1.03943681716919,1.46858596801758,-0.19151762127876,-0.02008155919611,-0.46889415383339,-1.52148437500000,0.39550781250000,-0.39941406250000,0
267,418594542,-0.629503,0.302245,0.579105,0.420739,1.00000000000000,-0.00001130625606,0.00000664684922,-0.00003023631871,0.08197665214539,0.00892502069473,0.01235127449036,9.83759117126465,1.07104527950287,1.48221206665039,-0.15547841787338,0.09140440821648,-0.41579589247704,-1.52197265625000,0.40039062500000,-0.40039062500000,0
268,418602875,-0.629493,0.302235,0.579112,0.420751,1.00000000000000,-0.00002538226545,0.00000130105764,-0.00003317743540,0.08177286386490,0.00867354869843,0.01223558187485,9.81313705444336,1.04086756706238,1.46832799911499,-0.34904515743256,0.01789154298604,-0.45624074339867,-1.52099609375000,0.39941406250000,-0.39648437500000,0
269,418611208,-0.629483,0.302225,0.579127,0.420755,1.00000000000000,-0.00001759454608,-0.00000469200313,-0.00002992339432,0.08145612478256,0.00870174169540,0.01221251487732,9.77512550354004,1.04425060749054,1.46556067466736,-0.24195206165314,-0.06452225893736,-0.41149267554283,-1.52294921875000,0.39746093750000,-0.40039062500000,0
270,418619541,-0.629474,0.302216,0.579140,0.420756,1.00000000000000,-0.00001666881144,-0.00000587850809,-0.00002666004002,0.08176344633102,0.00860553979874,0.01217269897461,9.81200408935547,1.03270602226257,1.46078264713287,-0.22922179102898,-0.08083853870630,-0.36661657691002,-1.52246093750000,0.40039062500000,-0.39990234375000,0
271,418627874,-0.629460,0.302193,0.579156,0.420771,1.00000000000000,-0.00001759268343,0.00000050384551,-0.00004633516073,0.08172619342804,0.00844466686249,0.01228672266006,9.80753517150879,1.01340043544769,1.47446560859680,-0.24192647635937,0.00692865112796,-0.63717973232269,-1.52294921875000,0.39697265625000,-0.39746093750000,0
272,418636207,-0.629452,0.302161,0.579171,0.420786,1.00000000000000,-0.00000911764801,0.00000845175236,-0.00004809163511,0.08165699243546,0.00872427225113,0.01206177473068,9.79923057556152,1.04695451259613,1.44747078418732,-0.12538167834282,0.11622457951307,-0.66133391857147,-1.52246093750000,0.40039062500000,-0.40234375000000,0
273,418644540,-0.629445,0.302138,0.579186,0.420791,1.00000000000000,-0.00000910460949,0.00000221747905,-0.00003698281944,0.08168727159500,0.00904065370560,0.01229399442673,9.80286312103271,1.08492159843445,1.47533833980560,-0.12520237267017,0.03049374744296,-0.50857061147690,-1.52246093750000,0.39648437500000,-0.39892578125000,0
274,418652873,-0.629436,0.302125,0.579199,0.420797,1.00000000000000,-0.00001719407737,-0.00000219419599,-0.00003247335553,0.08195722103119,0.00908476114273,0.01227819919586,9.83525943756104,1.09021496772766,1.47344243526459,-0.23644497990608,-0.03017356805503,-0.44655853509903,-1.52148437500000,0.39746093750000,-0.40039062500000,0
275,418661206,-0.629430,0.302119,0.579207,0.420799,1.00000000000000,-0.00002087652683,-0.00000035390258,-0.00002229213715,0.08195763826370,0.00896829366684,0.01232337951660,9.83530902862549,1.07623815536499,1.47886455059052,-0.28708434104919,-0.00486670434475,-0.30655112862587,-1.52001953125000,0.39990234375000,-0.39843750000000,0
276,418669539,-0.629424,0.302111,0.579217,0.420800,1.00000000000000,-0.00001760385931,-0.00000282377005,-0.00002387538552,0.08200043439865,0.00864738225937,0.01219445466995,9.84044456481934,1.03772735595703,1.46339297294617,-0.24208013713360,-0.03883118182421,-0.32832324504852,-1.52050781250000,0.39794921875000,-0.39941406250000,0
277,418677872,-0.629413,0.302106,0.579227,0.420806,1.00000000000000,-0.00002488307655,-0.00000403821468,-0.00002697110176,0.08185476064682,0.00876218080521,0.01222842931747,9.82296371459961,1.05150365829468,1.46747004985809,-0.34218055009842,-0.05553165823221,-0.37089410424232,-1.52294921875000,0.39746093750000,-0.39697265625000,0
278,418686205,-0.629406,0.302094,0.579236,0.420811,1.00000000000000,-0.00001857429743,0.00000069197267,-0.00002844817936,0.08181488513947,0.00876575708389,0.01215618848801,9.81817817687988,1.05193281173706,1.45880091190338,-0.25542512536049,0.00951568782330,-0.39120617508888,-1.52197265625000,0.39892578125000,-0.40185546875000,0
279,418694538,-0.629402,0.302065,0.579254,0.420815,1.00000000000000,-0.00000192411244,0.00000451970845,-0.00003900192678,0.08192366361618,0.00881475210190,0.01226449012756,9.83123207092285,1.05781245231628,1.47179758548737,-0.02645950391889,0.06215294077992,-0.53633642196655,-1.52294921875000,0.39697265625000,-0.39941406250000,0
280,418702871,-0.629392,0.302050,0.579266,0.420825,1.00000000000000,-0.00001993030310,-0.00000052712858,-0.00003563053906,0.08179271221161,0.00890243053436,0.01235264539719,9.81551742553711,1.06833434104919,1.48237657546997,-0.27407231926918,-0.00724882865325,-0.48997467756271,-1.52539062500000,0.39794921875000,-0.39941406250000,0
281,418711204,-0.629386,0.302040,0.579272,0.420832,1.00000000000000,-0.00002196617424,0.00000451412052,-0.00002705678344,0.08180981874466,0.00887423753738,0.01221072673798,9.81757068634033,1.06495106220245,1.46534574031830,-0.30206868052483,0.06207609549165,-0.37207236886024,-1.52148437500000,0.39843750000000,-0.39990234375000,0
282,418719537,-0.629386,0.302019,0.579274,0.420843,1.00000000000000,-0.00001666508615,0.00001453701407,-0.00003301911056,0.08188688755035,0.00877004861832,0.01226013898849,9.82681846618652,1.05244779586792,1.47127544879913,-0.22917056083679,0.19990630447865,-0.45406356453896,-1.52099609375000,0.39697265625000,-0.39990234375000,0
283,418727870,-0.629379,0.301995,0.579286,0.420854,1.00000000000000,-0.00001384317875,0.00000666733831,-0.00003987923265,0.08198446035385,0.00878393650055,0.01204699277878,9.83852767944336,1.05411446094513,1.44569683074951,-0.19036498665810,0.09168615192175,-0.54840075969696,-1.52148437500000,0.39794921875000,-0.39746093750000,0
284,418736203,-0.629375,0.301970,0.579289,0.420875,1.00000000000000,-0.00002049654722,0.00001633819193,-0.00004328414798,0.08187502622604,0.00871896743774,0.01217931509018,9.82539558410645,1.04631781578064,1.46157622337341,-0.28185901045799,0.22467525303364,-0.59522360563278,-1.52294921875000,0.39501953125000,-0.39990234375000,0
285,418744536,-0.629368,0.301950,0.579296,0.420890,1.00000000000000,-0.00002091564238,0.00000880192965,-0.00003927759826,0.08181178569794,0.00889480113983,0.01216417551041,9.81780624389648,1.06741869449615,1.45975935459137,-0.28762224316597,0.12104006856680,-0.54012733697891,-1.52441406250000,0.39892578125000,-0.39794921875000,0
286,418752869,-0.629358,0.301934,0.579300,0.420911,1.00000000000000,-0.00002788007259,0.00000891927630,-0.00004012882710,0.08176517486572,0.00873839855194,0.01241141557693,9.81221294403076,1.04864966869354,1.48942935466766,-0.38339382410049,0.12265376746655,-0.55183309316635,-1.52148437500000,0.39892578125000,-0.39892578125000,0
287,418761202,-0.629345,0.301908,0.579319,0.420924,1.00000000000000,-0.00001164153218,0.00000023376197,-0.00004774332047,0.08167356252670,0.00869631767273,0.01216280460358,9.80121994018555,1.04359996318817,1.45959472656250,-0.16008895635605,0.00321458652616,-0.65654402971268,-1.52099609375000,0.39648437500000,-0.39941406250000,0
288,418769535,-0.629341,0.301873,0.579333,0.420935,1.00000000000000,-0.00000460445881,0.00001056399196,-0.00004650093615,0.08189815282822,0.00884753465652,0.01198703050613,9.82817077636719,1.06174659729004,1.43850111961365,-0.06331838667393,0.14527113735676,-0.63945937156677,-1.52392578125000,0.39697265625000,-0.39892578125000,0
289,418777868,-0.629335,0.301835,0.579350,0.420947,1.00000000000000,-0.00000286661088,0.00000987853855,-0.00004928745329,0.08165836334229,0.00878918170929,0.01222997903824,9.79939365386963,1.05474376678467,1.46765613555908,-0.03942031040788,0.13584509491920,-0.67777830362320,-1.52148437500000,0.39501953125000,-0.40087890625000,0
290,418786201,-0.629324,0.301801,0.579369,0.420963,1.00000000000000,-0.00000800192356,0.00000540819019,-0.00005385652184,0.08168601989746,0.00878047943115,0.01219654083252,9.80271339416504,1.05369961261749,1.46364331245422,-0.11003874987364,0.07437092810869,-0.74060994386673,-1.52246093750000,0.39697265625000,-0.39843750000000,0
291,418794534,-0.629305,0.301771,0.579389,0.420985,1.00000000000000,-0.00001587718725,-0.00000033155084,-0.00005786679685,0.08173954486847,0.00878775119781,0.01220309734344,9.80913734436035,1.05457222461700,1.46443009376526,-0.21833574771881,-0.00455933390185,-0.79575741291046,-1.52148437500000,0.39941406250000,-0.39941406250000,0
292,418802867,-0.629293,0.301737,0.579413,0.420995,1.00000000000000,-0.00000298209488,-0.00000043772161,-0.00005134567618,0.08178889751434,0.00905710458755,0.01231372356415,9.81505966186523,1.08689594268799,1.47770583629608,-0.04100839048624,-0.00601934501901,-0.70608204603195,-1.52246093750000,0.39843750000000,-0.39990234375000,0
293,418811200,-0.629272,0.301716,0.579436,0.421011,1.00000000000000,-0.00001723505557,-0.00000835768878,-0.00005039013922,0.08189493417740,0.00904726982117,0.01230353116989,9.82778453826904,1.08571577072144,1.47648274898529,-0.23700849711895,-0.11493107676506,-0.69294178485870,-1.52343750000000,0.39990234375000,-0.40087890625000,0
294,418819533,-0.629251,0.301703,0.579462,0.421014,1.00000000000000,-0.00001370720565,-0.00001787580550,-0.00003899633884,0.08179622888565,0.00885611772537,0.01213079690933,9.81593894958496,1.06277656555176,1.45575380325317,-0.18849514424801,-0.24581982195377,-0.53625959157944,-1.52294921875000,0.39697265625000,-0.40087890625000,0
295,418827866,-0.629243,0.301682,0.579485,0.421009,1.00000000000000,-0.00000136718154,-0.00000763311982,-0.00003230758011,0.08183783292770,0.00909256935120,0.01227229833603,9.82093334197998,1.09115207195282,1.47273445129395,-0.01880084723234,-0.10496713221073,-0.44427889585495,-1.52148437500000,0.39941406250000,-0.39892578125000,0
296,418836199,-0.629233,0.301672,0.579511,0.420995,1.00000000000000,-0.00000313855708,-0.00001788884401,-0.00002191029489,0.08198869228363,0.00907677412033,0.01215898990631,9.83903598785400,1.08925640583038,1.45913708209991,-0.04315998405218,-0.24599911272526,-0.30130025744438,-1.51855468750000,0.39697265625000,-0.39746093750000,0
297,418844532,-0.629226,0.301662,0.579528,0.420990,1.00000000000000,-0.00001021660864,-0.00000781752169,-0.00002306140959,0.08185422420502,0.00885498523712,0.01217269897461,9.82290077209473,1.06264066696167,1.46078193187714,-0.14049407839775,-0.10750294476748,-0.31712982058525,-1.52636718750000,0.39501953125000,-0.40185546875000,0
298,418852865,-0.629220,0.301651,0.579543,0.420986,1.00000000000000,-0.00001075305045,-0.00000551715493,-0.00002417154610,0.08185082674026,0.00878399610519,0.01227074861526,9.82249164581299,1.05412161350250,1.47254860401154,-0.14787097275257,-0.07586935907602,-0.33239591121674,-1.52099609375000,0.39550781250000,-0.40039062500000,0
299,418861198,-0.629211,0.301638,0.579557,0.420991,1.00000000000000,-0.00001683086157,-0.00000204518437,-0.00003158859909,0.08173716068268,0.00866615772247,0.01214200258255,9.80885124206543,1.03998041152954,1.45709884166718,-0.23145021498203,-0.02812442742288,-0.43439179658890,-1.52099609375000,0.39648437500000,-0.39794921875000,0
300,418869531,-0.629200,0.301612,0.579578,0.420995,1.00000000000000,-0.00000496394932,-0.00000341050327,-0.00004163011909,0.08172523975372,0.00882500410080,0.01220571994781,9.80742073059082,1.05904281139374,1.46474492549896,-0.06826192885637,-0.04689966514707,-0.57247811555862,-1.52197265625000,0.39550781250000,-0.39892578125000,0
301,418877864,-0.629187,0.301600,0.579593,0.421003,1.00000000000000,-0.00002014823258,-0.00000459514558,-0.00003439001739,0.08188694715500,0.00889021158218,0.01229685544968,9.82682609558105,1.06686794757843,1.47568154335022,-0.27706915140152,-0.06319031864405,-0.47291558980942,-1.52294921875000,0.39648437500000,-0.39941406250000,0
302,418886197,-0.629170,0.301582,0.579617,0.421009,1.00000000000000,-0.00001167878509,-0.00001196749508,-0.00004189647734,0.08162695169449,0.00885438919067,0.01220327615738,9.79562568664551,1.06256914138794,1.46445155143738,-0.16060127317905,-0.16457144916058,-0.57614105939865,-1.52441406250000,0.39843750000000,-0.39892578125000,0
303,418894530,-0.629150,0.301573,0.579637,0.421017,1.00000000000000,-0.00002217665315,-0.00001345574856,-0.00003702566028,0.08176946640015,0.00904017686844,0.01217395067215,9.81272792816162,1.08486449718475,1.46093237400055,-0.30496308207512,-0.18503721058369,-0.50915974378586,-1.52246093750000,0.39599609375000,-0.39990234375000,0
304,418902863,-0.629133,0.301566,0.579657,0.421020,1.00000000000000,-0.00001813471317,-0.00001470930874,-0.00003239326179,0.08170920610428,0.00909173488617,0.01210135221481,9.80549621582031,1.09105169773102,1.45222020149231,-0.24938018620014,-0.20227560400963,-0.44545716047287,-1.52197265625000,0.39941406250000,-0.39794921875000,0
305,418911196,-0.629109,0.301566,0.579679,0.421026,1.00000000000000,-0.00002652779222,-0.00002196244895,-0.00003277324140,0.08170318603516,0.00894373655319,0.01208060979843,9.80477333068848,1.07329154014587,1.44973146915436,-0.36479791998863,-0.30201748013496,-0.45068246126175,-1.52246093750000,0.39794921875000,-0.40136718750000,0
306,418919529,-0.629085,0.301573,0.579694,0.421036,1.00000000000000,-0.00003595463932,-0.00001832097769,-0.00003024563193,0.08172726631165,0.00900709629059,0.01197665929794,9.80766391754150,1.08089470863342,1.43725681304932,-0.49443152546883,-0.25194162130356,-0.41592389345169,-1.52050781250000,0.39697265625000,-0.39941406250000,0
307,418927862,-0.629069,0.301578,0.579710,0.421034,1.00000000000000,-0.00002505630255,-0.00001759827137,-0.00001938454807,0.08179599046707,0.00895327329636,0.01225030422211,9.81591033935547,1.07443547248840,1.47009491920471,-0.34456264972687,-0.24200329184532,-0.26656734943390,-1.52099609375000,0.39843750000000,-0.39941406250000,0
308,418936195,-0.629048,0.301595,0.579721,0.421038,1.00000000000000,-0.00003898516297,-0.00002130493522,-0.00001812353730,0.08194053173065,0.00905746221542,0.01214545965195,9.83325672149658,1.08693909645081,1.45751357078552,-0.53610599040985,-0.29297560453415,-0.24922651052475,-1.52197265625000,0.39453125000000,-0.39892578125000,0
309,418944528,-0.629036,0.301606,0.579734,0.421029,1.00000000000000,-0.00002526678145,-0.00001762248576,-0.00000958144665,0.08187687397003,0.00890916585922,0.01219451427460,9.82561683654785,1.06914258003235,1.46340012550354,-0.34745708107948,-0.24233625829220,-0.13175961375237,-1.52441406250000,0.39794921875000,-0.39990234375000,0
310,418952861,-0.629023,0.301630,0.579737,0.421027,1.00000000000000,-0.00004128552973,-0.00001666694880,-0.00000393390656,0.08190023899078,0.00903338193893,0.01228553056717,9.82842063903809,1.08404910564423,1.47432255744934,-0.56773948669434,-0.22919617593288,-0.05409726500511,-1.51904296875000,0.39648437500000,-0.39794921875000,0
311,418961194,-0.629011,0.301656,0.579737,0.421028,1.00000000000000,-0.00004523806274,-0.00001227483153,-0.00000338070095,0.08171570301056,0.00904864072800,0.01205211877823,9.80627632141113,1.08588027954102,1.44631195068359,-0.62209290266037,-0.16879780590534,-0.04648983478546,-1.52050781250000,0.39746093750000,-0.39990234375000,0
312,418969527,-0.628998,0.301682,0.579737,0.421030,1.00000000000000,-0.00004660524428,-0.00001434981823,-0.00000511109829,0.08172798156738,0.00899106264114,0.01229995489120,9.80774974822998,1.07897055149078,1.47605347633362,-0.64089381694794,-0.19733208417892,-0.07028546184301,-1.51904296875000,0.39599609375000,-0.39843750000000,0
313,418977860,-0.628988,0.301707,0.579740,0.421021,1.00000000000000,-0.00003680214286,-0.00001620501280,0.00000285636634,0.08187991380692,0.00907641649246,0.01216298341751,9.82598209381104,1.08921349048615,1.45961630344391,-0.50608599185944,-0.22284384071827,0.03927942365408,-1.52246093750000,0.39990234375000,-0.40136718750000,0
314,418986193,-0.628980,0.301750,0.579729,0.421018,1.00000000000000,-0.00005766376853,-0.00001274049282,0.00001294258982,0.08190429210663,0.00909006595612,0.01218020915985,9.82890701293945,1.09085154533386,1.46168303489685,-0.79296541213989,-0.17520135641098,0.17798051238060,-1.52294921875000,0.39843750000000,-0.39843750000000,0
315,418994526,-0.628967,0.301799,0.579721,0.421013,1.00000000000000,-0.00006006285548,-0.00001999549568,0.00001635681838,0.08182734251022,0.00895136594772,0.01219958066940,9.81967353820801,1.07420682907104,1.46400809288025,-0.82595670223236,-0.27496883273125,0.22493141889572,-1.52441406250000,0.39892578125000,-0.39892578125000,0
316,419002859,-0.628959,0.301849,0.579708,0.421006,1.00000000000000,-0.00006010010839,-0.00001603551209,0.00002084951848,0.08184653520584,0.00890058279037,0.01217454671860,9.82197666168213,1.06811261177063,1.46100389957428,-0.82646894454956,-0.22051297128201,0.28671297430992,-1.52050781250000,0.39648437500000,-0.39990234375000,0
317,419011192,-0.628957,0.301900,0.579695,0.420991,1.00000000000000,-0.00005471333861,-0.00001384131610,0.00002946238965,0.08183306455612,0.00871306657791,0.01218777894974,9.82036018371582,1.04560971260071,1.46259188652039,-0.75239253044128,-0.19033937156200,0.40515315532684,-1.52050781250000,0.39941406250000,-0.40087890625000,0
318,419019525,-0.628952,0.301945,0.579688,0.420975,1.00000000000000,-0.00004754960537,-0.00001839548349,0.00002258922905,0.08168190717697,0.00872582197189,0.01217943429947,9.80222034454346,1.04714035987854,1.46159088611603,-0.65388017892838,-0.25296616554260,0.31063663959503,-1.52099609375000,0.39697265625000,-0.39794921875000,0
319,419027858,-0.628951,0.301989,0.579679,0.420958,1.00000000000000,-0.00004712119699,-0.00001456215978,0.00002623815089,0.08185660839081,0.00871676206589,0.01218193769455,9.82318496704102,1.04605317115784,1.46189093589783,-0.64798891544342,-0.20025207102299,0.36081489920616,-1.52539062500000,0.39697265625000,-0.40283203125000,0
320,419036191,-0.628945,0.302023,0.579676,0.420948,1.00000000000000,-0.00004321523011,-0.00001514703035,0.00001130905002,0.08174335956573,0.00869804620743,0.01212662458420,9.80959510803223,1.04380738735199,1.45525264739990,-0.59427583217621,-0.20829494297504,0.15551681816578,-1.52197265625000,0.39648437500000,-0.39794921875000,0
321,419044524,-0.628929,0.302053,0.579679,0.420945,1.00000000000000,-0.00004594214261,-0.00001895055175,-0.00000076368451,0.08173424005508,0.00857567787170,0.01227933168411,9.80850124359131,1.02912271022797,1.47357857227325,-0.63177508115768,-0.26059922575951,-0.01050183642656,-1.52197265625000,0.39746093750000,-0.39746093750000,0
322,419052857,-0.628914,0.302066,0.579688,0.420947,1.00000000000000,-0.00003508478403,-0.00001607649028,-0.00001590512693,0.08193951845169,0.00850689411163,0.01217108964920,9.83313465118408,1.02086806297302,1.46058905124664,-0.48246973752975,-0.22107645869255,-0.21871994435787,-1.52148437500000,0.39794921875000,-0.39941406250000,0
323,419061190,-0.628895,0.302077,0.579698,0.420953,1.00000000000000,-0.00003690458834,-0.00001485645771,-0.00002138316631,0.08180433511734,0.00881689786911,0.01214569807053,9.81691169738770,1.05806994438171,1.45754194259644,-0.50749480724335,-0.20429912209511,-0.29405140876770,-1.52197265625000,0.39892578125000,-0.39892578125000,0
324,419069523,-0.628879,0.302067,0.579720,0.420954,1.00000000000000,-0.00001409463584,-0.00001571327448,-0.00003283843398,0.08184707164764,0.00872719287872,0.01216262578964,9.82204055786133,1.04730498790741,1.45957338809967,-0.19382293522358,-0.21608170866966,-0.45157897472382,-1.52294921875000,0.39990234375000,-0.40283203125000,0
325,419077856,-0.628862,0.302073,0.579735,0.420955,1.00000000000000,-0.00002798624337,-0.00001635774970,-0.00002121366560,0.08176916837692,0.00893139839172,0.01208937168121,9.81269168853760,1.07181060314178,1.45078253746033,-0.38485386967659,-0.22494420409203,-0.29172050952911,-1.52587890625000,0.39941406250000,-0.39990234375000,0
326,419086189,-0.628850,0.302068,0.579752,0.420952,1.00000000000000,-0.00001688115299,-0.00001191347837,-0.00002400390804,0.08186250925064,0.00862902402878,0.01223391294479,9.82389163970947,1.03552436828613,1.46812868118286,-0.23214180767536,-0.16382864117622,-0.33009064197540,-1.52294921875000,0.39892578125000,-0.39941406250000,0
327,419094522,-0.628835,0.302057,0.579777,0.420949,1.00000000000000,-0.00000998377800,-0.00001586414874,-0.00003161653876,0.08187472820282,0.00869148969650,0.01212179660797,9.82535934448242,1.04302036762238,1.45467364788055,-0.13729229569435,-0.21815645694733,-0.43477606773376,-1.51953125000000,0.39355468750000,-0.39794921875000,0
328,419102855,-0.628826,0.302051,0.579797,0.420938,1.00000000000000,-0.00000881776214,-0.00001483410597,-0.00001905672252,0.08182060718536,0.00895798206329,0.01216453313828,9.81886577606201,1.07500064373016,1.45980203151703,-0.12125777453184,-0.20399175584316,-0.26205924153328,-1.52294921875000,0.39794921875000,-0.39843750000000,0
329,419111188,-0.628815,0.302056,0.579811,0.420932,1.00000000000000,-0.00002213381231,-0.00001532398164,-0.00001507811248,0.08179068565369,0.00886905193329,0.01210141181946,9.81527423858643,1.06432867050171,1.45222735404968,-0.30437394976616,-0.21072830259800,-0.20734722912312,-1.52294921875000,0.39599609375000,-0.39941406250000,0
330,419119521,-0.628801,0.302054,0.579830,0.420929,1.00000000000000,-0.00001758523285,-0.00001506879926,-0.00002358667552,0.08187770843506,0.00891453027725,0.01209014654160,9.82571697235107,1.06978631019592,1.45087552070618,-0.24182400107384,-0.20721916854382,-0.32435306906700,-1.52099609375000,0.39794921875000,-0.39990234375000,0
331,419127854,-0.628796,0.302056,0.579844,0.420915,1.00000000000000,-0.00001418031752,-0.00001175329089,-0.00000961683691,0.08186346292496,0.00899380445480,0.01203411817551,9.82400798797607,1.07929980754852,1.44415199756622,-0.19500117003918,-0.16162580251694,-0.13224628567696,-1.52490234375000,0.39599609375000,-0.39843750000000,0
332,419136187,-0.628789,0.302064,0.579852,0.420909,1.00000000000000,-0.00002506934106,-0.00001102313399,-0.00001010484993,0.08186715841293,0.00882655382156,0.01200193166733,9.82445144653320,1.05922877788544,1.44028925895691,-0.34474197030067,-0.15158502757549,-0.13895721733570,-1.52343750000000,0.39697265625000,-0.40087890625000,0
333,419144520,-0.628783,0.302064,0.579862,0.420904,1.00000000000000,-0.00001941435039,-0.00000649131835,-0.00001471675932,0.08204931020737,0.00899183750153,0.01204544305801,9.84631061553955,1.07906353473663,1.44551086425781,-0.26697719097137,-0.08926561474800,-0.20237807929516,-1.52099609375000,0.39794921875000,-0.39794921875000,0
334,419152853,-0.628780,0.302072,0.579868,0.420893,1.00000000000000,-0.00002201646566,-0.00000871531665,-0.00000460818410,0.08186811208725,0.00906115770340,0.01217007637024,9.82456588745117,1.08738207817078,1.46046745777130,-0.30276027321815,-0.11984901130199,-0.06336962431669,-1.52392578125000,0.39892578125000,-0.39892578125000,0
335,419161186,-0.628793,0.302082,0.579869,0.420866,1.00000000000000,-0.00001107715070,-0.00000068731606,0.00001566950232,0.08224558830261,0.00897246599197,0.01194858551025,9.86986446380615,1.07673895359039,1.43388783931732,-0.15232783555984,-0.00945165194571,0.21547974646091,-1.52001953125000,0.39648437500000,-0.40136718750000,0
336,419169519,-0.628796,0.302095,0.579871,0.420848,1.00000000000000,-0.00002063065767,-0.00000623613596,0.00000598747283,0.08186817169189,0.00876617431641,0.01202124357224,9.82457256317139,1.05198287963867,1.44260680675507,-0.28370323777199,-0.08575645834208,0.08233695477247,-1.52246093750000,0.39697265625000,-0.40039062500000,0
337,419177852,-0.628800,0.302093,0.579887,0.420823,1.00000000000000,-0.00000198744237,-0.00000971183181,-0.00000071898103,0.08190107345581,0.00896328687668,0.01207983493805,9.82852077484131,1.07563734054565,1.44963812828064,-0.02733038738370,-0.13355261087418,-0.00988709367812,-1.52294921875000,0.39599609375000,-0.39843750000000,0
338,419186185,-0.628809,0.302106,0.579887,0.420800,1.00000000000000,-0.00001647509634,-0.00000314414501,0.00001199450344,0.08186268806458,0.00898361206055,0.01234197616577,9.82391452789307,1.07807648181915,1.48109555244446,-0.22655791044235,-0.04323682561517,0.16494286060333,-1.52001953125000,0.39453125000000,-0.40039062500000,0
339,419194518,-0.628810,0.302121,0.579889,0.420785,1.00000000000000,-0.00002371892333,-0.00000691413879,0.00000577699393,0.08181893825531,0.00865954160690,0.01219850778580,9.81866455078125,1.03918647766113,1.46387910842896,-0.32617166638374,-0.09508003294468,0.07944254577160,-1.52392578125000,0.39697265625000,-0.40039062500000,0
340,419202851,-0.628810,0.302121,0.579902,0.420767,1.00000000000000,-0.00000971369445,-0.00000962242484,-0.00000538863242,0.08165073394775,0.00870847702026,0.01223558187485,9.79847908020020,1.04505896568298,1.46832847595215,-0.13357824087143,-0.13232316076756,-0.07410198450089,-1.52099609375000,0.39599609375000,-0.39941406250000,0
341,419211184,-0.628803,0.302141,0.579910,0.420752,1.00000000000000,-0.00002725794911,-0.00001730211079,0.00000299047679,0.08157962560654,0.00890588760376,0.01201093196869,9.78994560241699,1.06874918937683,1.44136941432953,-0.37483868002892,-0.23793062567711,0.04112365096807,-1.52539062500000,0.39843750000000,-0.39794921875000,0
342,419219517,-0.628796,0.302159,0.579919,0.420738,1.00000000000000,-0.00002629309893,-0.00001748465002,0.00000055227429,0.08176672458649,0.00876373052597,0.01206785440445,9.81239891052246,1.05168926715851,1.44820058345795,-0.36157053709030,-0.24044080078602,0.00759462034330,-1.52148437500000,0.39404296875000,-0.39794921875000,0
343,419227850,-0.628785,0.302162,0.579934,0.420731,1.00000000000000,-0.00002039037645,-0.00001493096352,-0.00001597777009,0.08164471387863,0.00890570878983,0.01221668720245,9.79775714874268,1.06872773170471,1.46606099605560,-0.28039902448654,-0.20532369613647,-0.21971890330315,-1.52294921875000,0.39599609375000,-0.40087890625000,0
344,419236183,-0.628776,0.302181,0.579945,0.420716,1.00000000000000,-0.00002566538751,-0.00002028793097,-0.00000020302832,0.08203345537186,0.00898933410645,0.01217514276505,9.84440803527832,1.07876312732697,1.46107542514801,-0.35293856263161,-0.27899026870728,-0.00279195187613,-1.52392578125000,0.39697265625000,-0.39746093750000,0
345,419244516,-0.628764,0.302208,0.579945,0.420714,1.00000000000000,-0.00004385411739,-0.00001475401223,-0.00000031292439,0.08190727233887,0.00899231433868,0.01220637559891,9.82926559448242,1.07912075519562,1.46482360363007,-0.60306155681610,-0.20289033651352,-0.00430319132283,-1.52343750000000,0.39843750000000,-0.39746093750000,0
346,419252849,-0.628746,0.302252,0.579947,0.420707,1.00000000000000,-0.00005342997611,-0.00002814643085,0.00000907760113,0.08178174495697,0.00906944274902,0.01211863756180,9.81420135498047,1.08837640285492,1.45429491996765,-0.73474436998367,-0.38705673813820,0.12483098357916,-1.52294921875000,0.39599609375000,-0.39746093750000,0
347,419261182,-0.628738,0.302298,0.579944,0.420691,1.00000000000000,-0.00004836916924,-0.00002196617424,0.00002132635564,0.08155322074890,0.00890302658081,0.01203137636185,9.78677749633789,1.06840586662292,1.44382286071777,-0.66515040397644,-0.30206868052483,0.29327017068863,-1.52343750000000,0.39892578125000,-0.39501953125000,0
348,419269515,-0.628733,0.302340,0.579936,0.420678,1.00000000000000,-0.00004884973168,-0.00001589767635,0.00001994054765,0.08176052570343,0.00877177715302,0.01206398010254,9.81165504455566,1.05265533924103,1.44773542881012,-0.67175894975662,-0.21861748397350,0.27421319484711,-1.52392578125000,0.39843750000000,-0.39843750000000,0
349,419277848,-0.628730,0.302380,0.579935,0.420655,1.00000000000000,-0.00003832578659,-0.00002014450729,0.00002337712795,0.08166003227234,0.00884687900543,0.01211470365524,9.79959487915039,1.06166768074036,1.45382273197174,-0.52703845500946,-0.27701792120934,0.32147145271301,-1.52441406250000,0.39843750000000,-0.39843750000000,0
350,419286181,-0.628734,0.302413,0.579934,0.420628,1.00000000000000,-0.00002904422581,-0.00001537613571,0.00002562534064,0.08182269334793,0.00891417264938,0.01208436489105,9.81911563873291,1.06974339485168,1.45018172264099,-0.39940276741982,-0.21144551038742,0.35238781571388,-1.52294921875000,0.39599609375000,-0.39746093750000,0
351,419294514,-0.628736,0.302445,0.579930,0.420607,1.00000000000000,-0.00003390014172,-0.00001131556928,0.00002080108970,0.08185893297195,0.00872308015823,0.01194012165070,9.82346439361572,1.04681146144867,1.43287181854248,-0.46617898344994,-0.15560646355152,0.28604695200920,-1.52490234375000,0.39599609375000,-0.39697265625000,0
352,419302847,-0.628740,0.302467,0.579920,0.420599,1.00000000000000,-0.00003629550338,0.00000095646828,0.00000954885036,0.08199071884155,0.00868707895279,0.01206713914871,9.83927917480469,1.04249107837677,1.44811451435089,-0.49911895394325,0.01315290946513,0.13131138682365,-1.52246093750000,0.39697265625000,-0.39550781250000,0
353,419311180,-0.628737,0.302464,0.579929,0.420592,1.00000000000000,-0.00001654773951,-0.00000368244946,-0.00001448392868,0.08181822299957,0.00842881202698,0.01203399896622,9.81857872009277,1.01149785518646,1.44413757324219,-0.22755685448647,-0.05063933879137,-0.19917626678944,-1.52294921875000,0.39843750000000,-0.39843750000000,0
354,419319513,-0.628736,0.302453,0.579942,0.420583,1.00000000000000,-0.00000689923763,-0.00000258162618,-0.00001800991595,0.08186906576157,0.00881242752075,0.01212161779404,9.82468032836914,1.05753350257874,1.45465219020844,-0.09487511962652,-0.03550133109093,-0.24766401946545,-1.52392578125000,0.39941406250000,-0.39794921875000,0
355,419327846,-0.628729,0.302453,0.579949,0.420585,1.00000000000000,-0.00002620182931,-0.00000386312604,-0.00001881830394,0.08191263675690,0.00893592834473,0.01209378242493,9.82990932464600,1.07235419750214,1.45131158828735,-0.36031544208527,-0.05312392115593,-0.25878059864044,-1.52246093750000,0.39794921875000,-0.39941406250000,0
356,419336179,-0.628729,0.302443,0.579956,0.420583,1.00000000000000,-0.00001399591565,0.00000344682485,-0.00001985765994,0.08182287216187,0.00892645120621,0.01217854022980,9.81913757324219,1.07121682167053,1.46148347854614,-0.19246536493301,0.04739913716912,-0.27307334542274,-1.52392578125000,0.39843750000000,-0.39697265625000,0
357,419344512,-0.628717,0.302450,0.579966,0.420582,1.00000000000000,-0.00002834387124,-0.00001180917025,-0.00001569464803,0.08166903257370,0.00893127918243,0.01205360889435,9.80067539215088,1.07179629802704,1.44649076461792,-0.38977184891701,-0.16239427030087,-0.21582555770874,-1.52343750000000,0.39599609375000,-0.39892578125000,0
358,419352845,-0.628714,0.302457,0.579977,0.420566,1.00000000000000,-0.00001627765596,-0.00001243315637,-0.00000390410423,0.08182066679001,0.00894623994827,0.01215624809265,9.81887245178223,1.07359194755554,1.45880794525146,-0.22384278476238,-0.17097501456738,-0.05368743464351,-1.52246093750000,0.39892578125000,-0.39355468750000,0
359,419361178,-0.628721,0.302475,0.579974,0.420546,1.00000000000000,-0.00002303533256,-0.00000256672502,0.00001407694072,0.08206999301910,0.00924146175385,0.01185518503189,9.84879207611084,1.10901975631714,1.42267954349518,-0.31677126884460,-0.03529641777277,0.19357958436012,-1.52294921875000,0.39746093750000,-0.39746093750000,0
360,419369511,-0.628729,0.302501,0.579963,0.420531,1.00000000000000,-0.00003497861326,-0.00000020302832,0.00001826416701,0.08197379112244,0.00888979434967,0.01184719800949,9.83724784851074,1.06681787967682,1.42172050476074,-0.48100966215134,-0.00279195141047,0.25116035342216,-1.52539062500000,0.39941406250000,-0.39648437500000,0
