sep=,
DeviceTag:,LSh
FirmwareVersion:,3.0.0
AppVersion:,2023.6.0
StartTime: ,2025-02-11_12:17:11_000 EST
© Movella Technologies B. V. 2005-2025

PacketCounter,SampleTimeFine,Quat_W,Quat_X,Quat_Y,Quat_Z,dq_W,dq_X,dq_Y,dq_Z,dv[1],dv[2],dv[3],Acc_X,Acc_Y,Acc_Z,Gyr_X,Gyr_Y,Gyr_Z,Mag_X,Mag_Y,Mag_Z,Status
0,416377964,-0.358355,-0.581325,0.507829,-0.525125,0.00000000000000,0.00000000000000,0.00000000000000,0.00000000000000,0.00000000000000,0.00000000000000,0.00000000000000,0.00000000000000,0.00000000000000,0.00000000000000,0.00000000000000,0.00000000000000,0.00000000000000,-1.22460937500000,-0.48095703125000,-0.01611328125000,0
1,416386297,-0.358278,-0.581318,0.507823,-0.525192,1.00000000000000,0.00005998183042,0.00002393964678,0.00007631350309,0.08018207550049,-0.00974297523499,-0.01540225744247,9.62223339080811,-1.16920351982117,-1.84834456443787,0.82484233379364,0.32920694351196,1.04942810535431,-1.22021484375000,-0.47851562500000,-0.01660156250000,0
2,416394630,-0.358171,-0.581331,0.507808,-0.525264,1.00000000000000,0.00009122397751,0.00000472646207,0.00007850769907,0.08006966114044,-0.01048547029495,-0.01518929004669,9.60874271392822,-1.25830662250519,-1.82278752326965,1.25446999073029,0.06499613076448,1.07960164546967,-1.22460937500000,-0.48144531250000,-0.01904296875000,0
3,416402963,-0.358013,-0.581391,0.507745,-0.525367,1.00000000000000,0.00017901975662,-0.00001111440361,0.00006566476077,0.08037602901459,-0.01045137643814,-0.01540422439575,9.64542388916016,-1.25500285625458,-1.84848475456238,2.46179676055908,-0.15284013748169,0.90299147367477,-1.22314453125000,-0.48242187500000,-0.01806640625000,0
4,416411296,-0.357845,-0.581480,0.507664,-0.525461,1.00000000000000,0.00020090397447,-0.00002944655716,0.00004162359983,0.08046019077301,-0.01062136888504,-0.01522785425186,9.65553379058838,-1.27514863014221,-1.82743501663208,2.76273846626282,-0.40493541955948,0.57238847017288,-1.22412109375000,-0.48046875000000,-0.01269531250000,0
5,416419629,-0.357677,-0.581581,0.507580,-0.525545,1.00000000000000,0.00020017940551,-0.00004129111767,0.00003028567880,0.08071798086166,-0.01014453172684,-0.01536226272583,9.68646526336670,-1.21785473823547,-1.84365379810333,2.75277471542358,-0.56781637668610,0.41647467017174,-1.22167968750000,-0.48193359375000,-0.01318359375000,0
6,416427962,-0.357506,-0.581689,0.507485,-0.525633,1.00000000000000,0.00021247938275,-0.00003986246884,0.00002235732973,0.08086532354355,-0.00968974828720,-0.01552158594131,9.70410060882568,-1.16358947753906,-1.86284089088440,2.92191815376282,-0.54817026853561,0.30744767189026,-1.22412109375000,-0.48242187500000,-0.01953125000000,0
7,416436295,-0.357354,-0.581796,0.507396,-0.525705,1.00000000000000,0.00019055418670,-0.00004093814641,0.00001236423850,0.08092558383942,-0.00913733243942,-0.01542735099792,9.71138858795166,-1.09689307212830,-1.85150337219238,2.62041306495667,-0.56296247243881,0.17002728581429,-1.22460937500000,-0.48193359375000,-0.01269531250000,0
8,416444628,-0.357213,-0.581884,0.507332,-0.525764,1.00000000000000,0.00015707034618,-0.00004292465746,0.00002497900277,0.08050107955933,-0.00870662927628,-0.01548188924789,9.66039848327637,-1.04542279243469,-1.85817563533783,2.15995883941650,-0.59027999639511,0.34349972009659,-1.22216796875000,-0.48144531250000,-0.01611328125000,0
9,416452961,-0.357107,-0.581947,0.507303,-0.525795,1.00000000000000,0.00009515788406,-0.00003943592310,0.00002972129732,0.08026945590973,-0.00876086950302,-0.01563411951065,9.63271903991699,-1.05134618282318,-1.87616968154907,1.30856728553772,-0.54230457544327,0.40871354937553,-1.22412109375000,-0.48193359375000,-0.01464843750000,0
10,416461294,-0.357047,-0.581978,0.507324,-0.525781,1.00000000000000,0.00000805314630,-0.00004386529326,0.00003593694419,0.08023113012314,-0.00900417566299,-0.01542800664902,9.62812042236328,-1.08054423332214,-1.85143470764160,0.11074315756559,-0.60321527719498,0.49418824911118,-1.22216796875000,-0.47949218750000,-0.01513671875000,0
11,416469627,-0.357026,-0.581980,0.507392,-0.525727,1.00000000000000,-0.00007014162838,-0.00004925020039,0.00004227738827,0.08038902282715,-0.00923579931259,-0.01542389392853,9.64706802368164,-1.10834038257599,-1.85094106197357,-0.96455514431000,-0.67726594209671,0.58137911558151,-1.22265625000000,-0.47949218750000,-0.01660156250000,0
12,416477960,-0.357012,-0.581970,0.507470,-0.525672,1.00000000000000,-0.00008408538997,-0.00004285015166,0.00005063135177,0.08069252967834,-0.00954943895340,-0.01565790176392,9.68348979949951,-1.14597845077515,-1.87902319431305,-1.15630328655243,-0.58925551176071,0.69625890254974,-1.22314453125000,-0.48046875000000,-0.01464843750000,0
13,416486293,-0.357001,-0.581967,0.507535,-0.525620,1.00000000000000,-0.00007473118603,-0.00003877840936,0.00003749225289,0.08077365159988,-0.00957810878754,-0.01593846082687,9.69322490692139,-1.14941895008087,-1.91269171237946,-1.02766871452332,-0.53326272964478,0.51557606458664,-1.22265625000000,-0.47900390625000,-0.01611328125000,0
14,416494626,-0.357005,-0.581958,0.507608,-0.525558,1.00000000000000,-0.00009584240615,-0.00003729946911,0.00003512110561,0.08066743612289,-0.00977593660355,-0.01587104797363,9.68047904968262,-1.17315924167633,-1.90460181236267,-1.31798040866852,-0.51292508840561,0.48296919465065,-1.22460937500000,-0.48095703125000,-0.01660156250000,0
15,416502959,-0.357004,-0.581950,0.507690,-0.525487,1.00000000000000,-0.00010050646961,-0.00004845112562,0.00003930274397,0.08064639568329,-0.01016241312027,-0.01613801717758,9.67795372009277,-1.21953821182251,-1.93663942813873,-1.38211858272552,-0.66627746820450,0.54047322273254,-1.22314453125000,-0.47949218750000,-0.01513671875000,0
16,416511292,-0.356999,-0.581937,0.507761,-0.525436,1.00000000000000,-0.00008515268564,-0.00003322213888,0.00004432443529,0.08085030317307,-0.00982064008713,-0.01598042249680,9.70242404937744,-1.17852354049683,-1.91772758960724,-1.17098033428192,-0.45685544610023,0.60952913761139,-1.21972656250000,-0.47998046875000,-0.01123046875000,0
17,416519625,-0.357021,-0.581925,0.507815,-0.525383,1.00000000000000,-0.00009235739708,-0.00001361966133,0.00001932401210,0.08079242706299,-0.00962668657303,-0.01619076728821,9.69547843933105,-1.15524876117706,-1.94296979904175,-1.27005624771118,-0.18729127943516,0.26573485136032,-1.22607421875000,-0.47998046875000,-0.01416015625000,0
18,416527958,-0.357074,-0.581889,0.507886,-0.525319,1.00000000000000,-0.00013302266598,0.00000155624002,0.00002049561590,0.08085149526596,-0.00927811861038,-0.01610904932022,9.70253467559814,-1.11332285404205,-1.93338191509247,-1.82926619052887,0.02140069194138,0.28184622526169,-1.22265625000000,-0.47900390625000,-0.01562500000000,0
19,416536291,-0.357091,-0.581862,0.507952,-0.525273,1.00000000000000,-0.00009784847498,-0.00000930577517,0.00003879051656,0.08053928613663,-0.00902086496353,-0.01629751920700,9.66510009765625,-1.08254683017731,-1.95578038692474,-1.34556698799133,-0.12796871364117,0.53342932462692,-1.22167968750000,-0.47900390625000,-0.01416015625000,0
20,416544624,-0.357064,-0.581852,0.507987,-0.525268,1.00000000000000,-0.00002820603549,-0.00000562705100,0.00005015451461,0.08015215396881,-0.00922006368637,-0.01639312505722,9.61864376068115,-1.10645198822021,-1.96725320816040,-0.38787636160851,-0.07738060504198,0.68970173597336,-1.22265625000000,-0.48095703125000,-0.01464843750000,0
21,416552957,-0.357014,-0.581854,0.508021,-0.525267,1.00000000000000,-0.00000895932317,-0.00002050772309,0.00005714129657,0.08016586303711,-0.00955921411514,-0.01615005731583,9.62028789520264,-1.14715147018433,-1.93808424472809,-0.12320447713137,-0.28201273083687,0.78578072786331,-1.22363281250000,-0.47949218750000,-0.01318359375000,0
22,416561290,-0.356950,-0.581859,0.508055,-0.525272,1.00000000000000,0.00000357348472,-0.00002574548125,0.00006426032633,0.08038222789764,-0.00968927145004,-0.01611429452896,9.64625263214111,-1.16275894641876,-1.93379259109497,0.04914091527462,-0.35403999686241,0.88367837667465,-1.22460937500000,-0.48242187500000,-0.01416015625000,0
23,416569623,-0.356863,-0.581881,0.508061,-0.525302,1.00000000000000,0.00005114730448,-0.00002149306238,0.00006088148803,0.08060902357101,-0.00959020853043,-0.01629191637039,9.67346858978271,-1.15087091922760,-1.95510804653168,0.70335406064987,-0.29556265473366,0.83721399307251,-1.22314453125000,-0.48144531250000,-0.01269531250000,0
24,416577956,-0.356788,-0.581896,0.508057,-0.525339,1.00000000000000,0.00004940573126,-0.00000512599945,0.00005451310426,0.08074772357941,-0.00972872972488,-0.01608586311340,9.69011402130127,-1.16749417781830,-1.93038070201874,0.67940473556519,-0.07049037516117,0.74963897466660,-1.22314453125000,-0.48291015625000,-0.01708984375000,0
25,416586289,-0.356734,-0.581892,0.508072,-0.525365,1.00000000000000,0.00001620221883,0.00000305008143,0.00006063561887,0.08060503005981,-0.00957244634628,-0.01607197523117,9.67298984527588,-1.14873945713043,-1.92871403694153,0.22280541062355,0.04194330796599,0.83383297920227,-1.22021484375000,-0.48095703125000,-0.01367187500000,0
26,416594622,-0.356687,-0.581885,0.508101,-0.525378,1.00000000000000,-0.00000418350101,-0.00000462681055,0.00006126519293,0.08073902130127,-0.00927227735519,-0.01583695411682,9.68906784057617,-1.11271750926971,-1.90051043033600,-0.05752956494689,-0.06362575292587,0.84249055385590,-1.22363281250000,-0.48144531250000,-0.01269531250000,0
27,416602955,-0.356649,-0.581871,0.508136,-0.525386,1.00000000000000,-0.00001676566899,-0.00000129453838,0.00006294343621,0.08067524433136,-0.00967615842819,-0.01580238342285,9.68141555786133,-1.16118538379669,-1.89636170864105,-0.23055373132229,-0.01780189201236,0.86556899547577,-1.22558593750000,-0.48046875000000,-0.01318359375000,0
28,416611288,-0.356599,-0.581858,0.508164,-0.525406,1.00000000000000,0.00000062864274,0.00000133458525,0.00006818119437,0.08083719015121,-0.00983405113220,-0.01579779386520,9.70084857940674,-1.18013310432434,-1.89581096172333,0.00864480435848,0.01835259795189,0.93759620189667,-1.22314453125000,-0.48046875000000,-0.01367187500000,0
29,416619621,-0.356530,-0.581862,0.508174,-0.525439,1.00000000000000,0.00003338512033,-0.00000294670463,0.00006366614252,0.08077794313431,-0.00995308160782,-0.01621949672699,9.69373989105225,-1.19441747665405,-1.94641733169556,0.45909672975540,-0.04052171856165,0.87550729513168,-1.22509765625000,-0.47900390625000,-0.01367187500000,0
30,416627954,-0.356419,-0.581885,0.508154,-0.525508,1.00000000000000,0.00009767524898,-0.00000253599137,0.00007228180766,0.08069890737534,-0.00978237390518,-0.01624476909637,9.68425559997559,-1.17393183708191,-1.94945085048676,1.34318494796753,-0.03487378358841,0.99398601055145,-1.22314453125000,-0.48193359375000,-0.01367187500000,0
31,416636287,-0.356291,-0.581916,0.508127,-0.525586,1.00000000000000,0.00011961534619,-0.00000850204378,0.00007509067655,0.08027470111847,-0.00991803407669,-0.01619279384613,9.63319015502930,-1.19163465499878,-1.94312262535095,1.64489495754242,-0.11691616475582,1.03261220455170,-1.22460937500000,-0.47998046875000,-0.01611328125000,0
32,416644620,-0.356151,-0.581957,0.508102,-0.525661,1.00000000000000,0.00012790504843,-0.00002183578908,0.00007687788457,0.08028852939606,-0.00993829965591,-0.01585900783539,9.63483333587646,-1.19393289089203,-1.90323245525360,1.75889074802399,-0.30027565360069,1.05718898773193,-1.22656250000000,-0.47949218750000,-0.01171875000000,0
33,416652953,-0.356015,-0.582001,0.508076,-0.525729,1.00000000000000,0.00012250244617,-0.00002445746213,0.00007074140012,0.08030718564987,-0.01010298728943,-0.01577675342560,9.63705635070801,-1.21372807025909,-1.89341187477112,1.68459713459015,-0.33632776141167,0.97280305624008,-1.22314453125000,-0.47900390625000,-0.01464843750000,0
34,416661286,-0.355897,-0.582060,0.508030,-0.525788,1.00000000000000,0.00012434832752,-0.00002192240208,0.00003821589053,0.08083283901215,-0.00998145341873,-0.01553267240524,9.70018005371094,-1.19885408878326,-1.86410403251648,1.70998072624207,-0.30146676301956,0.52552723884583,-1.22119140625000,-0.47900390625000,-0.01611328125000,0
35,416669619,-0.355792,-0.582112,0.507993,-0.525837,1.00000000000000,0.00010451208800,-0.00002058967948,0.00003610085696,0.08087116479874,-0.00959312915802,-0.01552236080170,9.70492744445801,-1.15122151374817,-1.86275768280029,1.43720185756683,-0.28313973546028,0.49644228816032,-1.22558593750000,-0.48046875000000,-0.01318359375000,0
36,416677952,-0.355698,-0.582152,0.507964,-0.525885,1.00000000000000,0.00008845515549,-0.00001196656376,0.00004153698683,0.08107841014862,-0.00928246974945,-0.01561921834946,9.72979736328125,-1.11394083499908,-1.87438106536865,1.21639430522919,-0.16455864906311,0.57119739055634,-1.22314453125000,-0.47949218750000,-0.01269531250000,0
37,416686285,-0.355607,-0.582188,0.507941,-0.525929,1.00000000000000,0.00008012447506,-0.00001301802695,0.00004467088729,0.08084106445312,-0.00936108827591,-0.01564973592758,9.70131492614746,-1.12337541580200,-1.87804329395294,1.10183465480804,-0.17901788651943,0.61429339647293,-1.22558593750000,-0.47949218750000,-0.01123046875000,0
38,416694618,-0.355497,-0.582232,0.507922,-0.525971,1.00000000000000,0.00009142328054,-0.00002941302955,0.00005107652396,0.08042877912521,-0.00953894853592,-0.01562887430191,9.65183925628662,-1.14471948146820,-1.87553977966309,1.25721073150635,-0.40447437763214,0.70238077640533,-1.22363281250000,-0.48291015625000,-0.01171875000000,0
39,416702951,-0.355376,-0.582286,0.507905,-0.526010,1.00000000000000,0.00009853485972,-0.00004262477160,0.00005217362195,0.08041292428970,-0.00964820384979,-0.01566863059998,9.64993572235107,-1.15783071517944,-1.88031077384949,1.35500597953796,-0.58615618944168,0.71746754646301,-1.22656250000000,-0.47753906250000,-0.01318359375000,0
40,416711284,-0.355242,-0.582358,0.507880,-0.526046,1.00000000000000,0.00011466909200,-0.00005791336298,0.00004378054291,0.08022433519363,-0.00985711812973,-0.01578527688980,9.62704372406006,-1.18393468856812,-1.89499151706696,1.57687640190125,-0.79639786481857,0.60204982757568,-1.22412109375000,-0.47949218750000,-0.01074218750000,0
41,416719617,-0.355103,-0.582427,0.507847,-0.526096,1.00000000000000,0.00012910459191,-0.00004715099931,0.00004936847836,0.08055561780930,-0.00999253988266,-0.01563662290573,9.66685295104980,-1.20015811920166,-1.87688958644867,1.77538657188416,-0.64839869737625,0.67889249324799,-1.22363281250000,-0.47753906250000,-0.01513671875000,0
42,416727950,-0.354954,-0.582513,0.507809,-0.526138,1.00000000000000,0.00013846252114,-0.00006464868784,0.00003881845623,0.08066046237946,-0.00990957021713,-0.01583456993103,9.67943954467773,-1.18996191024780,-1.90077733993530,1.90407252311707,-0.88901883363724,0.53381341695786,-1.22802734375000,-0.47851562500000,-0.01123046875000,0
43,416736283,-0.354813,-0.582600,0.507770,-0.526173,1.00000000000000,0.00013141427189,-0.00006433203816,0.00003279838711,0.08097791671753,-0.00999170541763,-0.01574772596359,9.71752452850342,-1.19980430603027,-1.89042222499847,1.80714833736420,-0.88466441631317,0.45102822780609,-1.22363281250000,-0.48095703125000,-0.01171875000000,0
44,416744616,-0.354663,-0.582688,0.507727,-0.526219,1.00000000000000,0.00014482531697,-0.00006204098463,0.00003683846444,0.08095008134842,-0.00974869728088,-0.01581186056137,9.71421432495117,-1.17061066627502,-1.89799225330353,1.99157094955444,-0.85315901041031,0.50658559799194,-1.22509765625000,-0.47949218750000,-0.01025390625000,0
45,416752949,-0.354524,-0.582766,0.507684,-0.526267,1.00000000000000,0.00013620872051,-0.00005069002509,0.00003820192069,0.08078026771545,-0.00940793752670,-0.01580697298050,9.69383525848389,-1.12982749938965,-1.89735746383667,1.87307929992676,-0.69706577062607,0.52533513307571,-1.22265625000000,-0.47753906250000,-0.00976562500000,0
46,416761282,-0.354391,-0.582837,0.507656,-0.526306,1.00000000000000,0.00011747423559,-0.00005351379514,0.00004321429878,0.08062916994095,-0.00946187973022,-0.01596957445145,9.67564296722412,-1.13650548458099,-1.91704356670380,1.61545133590698,-0.73589694499969,0.59426301717758,-1.22607421875000,-0.47753906250000,-0.00927734375000,0
47,416769615,-0.354280,-0.582894,0.507637,-0.526335,1.00000000000000,0.00008952151984,-0.00004428438842,0.00004044268280,0.08049535751343,-0.00939351320267,-0.01608711481094,9.65982818603516,-1.12726664543152,-1.93053090572357,1.23105835914612,-0.60897833108902,0.55614906549454,-1.22705078125000,-0.47900390625000,-0.01074218750000,0
48,416777948,-0.354187,-0.582932,0.507643,-0.526349,1.00000000000000,0.00005140807480,-0.00004283711314,0.00005034077913,0.08059859275818,-0.00953751802444,-0.01638215780258,9.67221736907959,-1.14454782009125,-1.96593737602234,0.70694011449814,-0.58907610177994,0.69226318597794,-1.22753906250000,-0.48144531250000,-0.00927734375000,0
49,416786281,-0.354112,-0.582948,0.507665,-0.526361,1.00000000000000,0.00002433080226,-0.00002885982394,0.00006111245602,0.08055269718170,-0.00977337360382,-0.01642656326294,9.66670989990234,-1.17285168170929,-1.97126626968384,0.33458590507507,-0.39686694741249,0.84039020538330,-1.22363281250000,-0.48095703125000,-0.01025390625000,0
50,416794614,-0.354034,-0.582970,0.507683,-0.526372,1.00000000000000,0.00002969149500,-0.00003276765347,0.00005521345884,0.08051562309265,-0.00992852449417,-0.01633518934250,9.66226100921631,-1.19147062301636,-1.96030080318451,0.40830373764038,-0.45060566067696,0.75927001237869,-1.22607421875000,-0.47998046875000,-0.00781250000000,0
51,416802947,-0.353947,-0.582990,0.507702,-0.526390,1.00000000000000,0.00003686081618,-0.00003265030682,0.00006534066051,0.08054029941559,-0.01010519266129,-0.01618254184723,9.66522216796875,-1.21267151832581,-1.94198250770569,0.50689291954041,-0.44899192452431,0.89853465557098,-1.22314453125000,-0.47802734375000,-0.01171875000000,0
52,416811280,-0.353836,-0.583024,0.507706,-0.526424,1.00000000000000,0.00007222872227,-0.00003677047789,0.00006850901991,0.08051800727844,-0.01023906469345,-0.01610606908798,9.66254711151123,-1.22873687744141,-1.93280541896820,0.99325603246689,-0.50565063953400,0.94210445880890,-1.22265625000000,-0.47656250000000,-0.01171875000000,0
53,416819613,-0.353721,-0.583071,0.507687,-0.526468,1.00000000000000,0.00009626243263,-0.00003257393837,0.00005276035517,0.08048820495605,-0.01018881797791,-0.01604139804840,9.65896987915039,-1.22270703315735,-1.92504405975342,1.32375645637512,-0.44794175028801,0.72553598880768,-1.22265625000000,-0.47851562500000,-0.01123046875000,0
54,416827946,-0.353603,-0.583126,0.507650,-0.526521,1.00000000000000,0.00011454429477,-0.00002697482705,0.00004337076098,0.08048725128174,-0.01022356748581,-0.01611071825027,9.65865516662598,-1.22809052467346,-1.93359065055847,1.57516014575958,-0.37094530463219,0.59641456604004,-1.22265625000000,-0.47851562500000,-0.01074218750000,0
55,416836279,-0.353480,-0.583195,0.507604,-0.526572,1.00000000000000,0.00012638699263,-0.00003364868462,0.00003318022937,0.08065509796143,-0.00981593132019,-0.01587468385696,9.67882919311523,-1.17887878417969,-1.90532743930817,1.73801541328430,-0.46272113919258,0.45627915859222,-1.22558593750000,-0.48046875000000,-0.01367187500000,0
56,416844612,-0.353354,-0.583259,0.507555,-0.526633,1.00000000000000,0.00013358052820,-0.00002679415047,0.00003869365901,0.08085656166077,-0.00948208570480,-0.01565521955490,9.70303440093994,-1.13882648944855,-1.87886166572571,1.83693754673004,-0.36846074461937,0.53209728002548,-1.22509765625000,-0.48242187500000,-0.01171875000000,0
57,416852945,-0.353242,-0.583297,0.507540,-0.526681,1.00000000000000,0.00009068753570,-0.00002504885197,0.00005992967635,0.08073121309280,-0.00945049524307,-0.01597732305527,9.68813228607178,-1.13410472869873,-1.91735529899597,1.24709296226501,-0.34446021914482,0.82412523031235,-1.22607421875000,-0.47900390625000,-0.00537109375000,0
58,416861278,-0.353160,-0.583324,0.507537,-0.526708,1.00000000000000,0.00005215685815,-0.00002091750503,0.00004929210991,0.08053797483444,-0.00975304841995,-0.01604396104813,9.66494274139404,-1.17041254043579,-1.92535221576691,0.71723693609238,-0.28764784336090,0.67784225940704,-1.22412109375000,-0.47851562500000,-0.01171875000000,0
59,416869611,-0.353083,-0.583347,0.507540,-0.526732,1.00000000000000,0.00004429463297,-0.00001945719123,0.00005140248686,0.08060032129288,-0.01002514362335,-0.01590037345886,9.67242527008057,-1.20306527614594,-1.90812075138092,0.60911923646927,-0.26756629347801,0.70686322450638,-1.22265625000000,-0.47851562500000,-0.00878906250000,0
60,416877944,-0.352997,-0.583376,0.507539,-0.526758,1.00000000000000,0.00005461554974,-0.00002493895590,0.00005163159221,0.08062791824341,-0.01005369424820,-0.01609307527542,9.67573642730713,-1.20649147033691,-1.93124616146088,0.75104784965515,-0.34294903278351,0.71001386642456,-1.22558593750000,-0.47705078125000,-0.00781250000000,0
61,416886277,-0.352888,-0.583412,0.507520,-0.526810,1.00000000000000,0.00009278301150,-0.00001899525523,0.00005789753050,0.08067607879639,-0.00976103544235,-0.01619058847427,9.68151569366455,-1.17137098312378,-1.94294822216034,1.27590906620026,-0.26121395826340,0.79618006944656,-1.22412109375000,-0.47900390625000,-0.01220703125000,0
62,416894610,-0.352757,-0.583450,0.507494,-0.526880,1.00000000000000,0.00011994037777,-0.00001794286072,0.00007154885679,0.08020973205566,-0.01011943817139,-0.01630461215973,9.62536907196045,-1.21576905250549,-1.95667207241058,1.64936459064484,-0.24674192070961,0.98390680551529,-1.22412109375000,-0.47900390625000,-0.00976562500000,0
63,416902943,-0.352605,-0.583501,0.507465,-0.526952,1.00000000000000,0.00013831723481,-0.00003322400153,0.00007490720600,0.08023250102997,-0.01024770736694,-0.01603561639786,9.62810516357422,-1.23091256618500,-1.92452275753021,1.90207457542419,-0.45688107609749,1.03008925914764,-1.22265625000000,-0.47900390625000,-0.01123046875000,0
64,416911276,-0.352441,-0.583564,0.507436,-0.527022,1.00000000000000,0.00014847423881,-0.00004715844989,0.00007397774607,0.08015108108521,-0.01030117273331,-0.01598411798477,9.61833190917969,-1.23718857765198,-1.91844117641449,2.04174900054932,-0.64850115776062,1.01730775833130,-1.22607421875000,-0.47705078125000,-0.00781250000000,0
65,416919609,-0.352275,-0.583635,0.507389,-0.527099,1.00000000000000,0.00016642827541,-0.00004171766341,0.00006354320794,0.08028960227966,-0.01023966073990,-0.01581948995590,9.63499641418457,-1.22963476181030,-1.89859032630920,2.28864502906799,-0.57368206977844,0.87381690740585,-1.22607421875000,-0.47802734375000,-0.00927734375000,0
66,416927942,-0.352107,-0.583719,0.507328,-0.527177,1.00000000000000,0.00017891358584,-0.00004415772855,0.00005047302693,0.08042919635773,-0.00983631610870,-0.01567816734314,9.65177249908447,-1.18107748031616,-1.88163065910339,2.46033716201782,-0.60723668336868,0.69408172369003,-1.22509765625000,-0.47949218750000,-0.00634765625000,0
67,416936275,-0.351950,-0.583794,0.507274,-0.527250,1.00000000000000,0.00016405712813,-0.00003925710917,0.00005002040416,0.08062481880188,-0.00924891233444,-0.01574534177780,9.67523956298828,-1.11067819595337,-1.88970625400543,2.25603795051575,-0.53984564542770,0.68785750865936,-1.22509765625000,-0.47753906250000,-0.00781250000000,0
68,416944608,-0.351797,-0.583865,0.507228,-0.527318,1.00000000000000,0.00015271175653,-0.00004059448838,0.00005428399891,0.08049839735031,-0.00922822952271,-0.01604872941971,9.66004562377930,-1.10830569267273,-1.92616248130798,2.10002136230469,-0.55823659896851,0.74648845195770,-1.22412109375000,-0.47656250000000,-0.00732421875000,0
69,416952941,-0.351674,-0.583915,0.507206,-0.527366,1.00000000000000,0.00010636448860,-0.00003515835851,0.00005589239299,0.08035850524902,-0.00951957702637,-0.01604157686234,9.64315605163574,-1.14380919933319,-1.92547953128815,1.46267521381378,-0.48348146677017,0.76860630512238,-1.22412109375000,-0.47851562500000,-0.00878906250000,0
70,416961274,-0.351569,-0.583946,0.507204,-0.527404,1.00000000000000,0.00007209181786,-0.00002846587449,0.00006357021630,0.08053833246231,-0.00966101884842,-0.01630729436874,9.66498565673828,-1.15936851501465,-1.95695340633392,0.99137324094772,-0.39144957065582,0.87418818473816,-1.22851562500000,-0.47998046875000,-0.00976562500000,0
71,416969607,-0.351471,-0.583974,0.507209,-0.527433,1.00000000000000,0.00005965586752,-0.00003065355122,0.00006340537220,0.08042526245117,-0.00993168354034,-0.01633775234222,9.65141677856445,-1.19184958934784,-1.96060860157013,0.82035988569260,-0.42153346538544,0.87192130088806,-1.22705078125000,-0.47802734375000,-0.00537109375000,0
72,416977940,-0.351398,-0.583981,0.507246,-0.527438,1.00000000000000,0.00000855047256,-0.00003205798566,0.00006932485849,0.08032345771790,-0.01034069061279,-0.01640772819519,9.63920021057129,-1.24093246459961,-1.96900594234467,0.11758213490248,-0.44084659218788,0.95332336425781,-1.22558593750000,-0.47753906250000,-0.00585937500000,0
73,416986273,-0.351349,-0.583980,0.507299,-0.527421,1.00000000000000,-0.00002870894969,-0.00003474391997,0.00006355810910,0.08037668466568,-0.01058334112167,-0.01645010709763,9.64558887481689,-1.27005195617676,-1.97409141063690,-0.39479219913483,-0.47778230905533,0.87402170896530,-1.22558593750000,-0.47900390625000,-0.00634765625000,0
74,416994606,-0.351293,-0.583982,0.507339,-0.527417,1.00000000000000,-0.00000964850187,-0.00002687051892,0.00006309431046,0.08054852485657,-0.01078230142593,-0.01649945974350,9.66620922088623,-1.29392778873444,-1.98001420497894,-0.13268174231052,-0.36951094865799,0.86764371395111,-1.22607421875000,-0.47656250000000,-0.01025390625000,0
75,417002939,-0.351225,-0.583991,0.507363,-0.527430,1.00000000000000,0.00001708511263,-0.00002233684063,0.00006187055260,0.08051395416260,-0.01088076829910,-0.01635307073593,9.66206073760986,-1.30574429035187,-1.96244680881500,0.23494656383991,-0.30716589093208,0.85081523656845,-1.22705078125000,-0.48046875000000,-0.00537109375000,0
76,417011272,-0.351167,-0.583999,0.507383,-0.527440,1.00000000000000,0.00001165550202,-0.00001568719745,0.00005488004535,0.08051347732544,-0.01054328680038,-0.01640164852142,9.66200256347656,-1.26524496078491,-1.96827638149261,0.16028106212616,-0.21572308242321,0.75468498468399,-1.22314453125000,-0.47753906250000,-0.00537109375000,0
77,417019605,-0.351131,-0.583994,0.507419,-0.527435,1.00000000000000,-0.00002186372876,-0.00001289136708,0.00005253870040,0.08027344942093,-0.01033538579941,-0.01651269197464,9.63319873809814,-1.24029576778412,-1.98160219192505,-0.30065992474556,-0.17727611958981,0.72248792648315,-1.22558593750000,-0.47705078125000,-0.00781250000000,0
78,417027938,-0.351107,-0.583988,0.507465,-0.527414,1.00000000000000,-0.00004392862320,-0.00001928023994,0.00004662852734,0.08050215244293,-0.01017659902573,-0.01631253957748,9.66064357757568,-1.22124063968658,-1.95758295059204,-0.60408610105515,-0.26513296365738,0.64121395349503,-1.22460937500000,-0.47753906250000,-0.00439453125000,0
79,417036271,-0.351100,-0.583960,0.507528,-0.527388,1.00000000000000,-0.00007116142660,-0.00000766571611,0.00005795806646,0.08055639266968,-0.01000463962555,-0.01630795001984,9.66715335845947,-1.20060467720032,-1.95703208446503,-0.97857904434204,-0.10541536659002,0.79701244831085,-1.22558593750000,-0.47705078125000,-0.00390625000000,0
80,417044604,-0.351097,-0.583919,0.507600,-0.527367,1.00000000000000,-0.00008171610534,0.00000079814345,0.00006853137165,0.08084869384766,-0.00991767644882,-0.01637440919876,9.70223045349121,-1.19016873836517,-1.96500754356384,-1.12372207641602,0.01097569894046,0.94241166114807,-1.22460937500000,-0.47998046875000,-0.00683593750000,0
81,417052937,-0.351114,-0.583867,0.507680,-0.527336,1.00000000000000,-0.00010534748435,0.00000824127346,0.00006538908929,0.08068293333054,-0.00973027944565,-0.01624989509583,9.68222236633301,-1.16850554943085,-1.95014894008636,-1.44868993759155,0.11333019286394,0.89920061826706,-1.22753906250000,-0.47753906250000,-0.00537109375000,0
82,417061270,-0.351151,-0.583799,0.507780,-0.527290,1.00000000000000,-0.00014169327915,0.00001113768667,0.00006908457726,0.08033925294876,-0.01018774509430,-0.01620310544968,9.64101982116699,-1.22304439544678,-1.94452893733978,-1.94850039482117,0.15316031873226,0.95001912117004,-1.22509765625000,-0.47607421875000,-0.00878906250000,0
83,417069603,-0.351201,-0.583722,0.507884,-0.527243,1.00000000000000,-0.00015376135707,0.00002087745816,0.00007007736713,0.08036923408508,-0.01008969545364,-0.01626873016357,9.64464855194092,-1.21119809150696,-1.95231008529663,-2.11445522308350,0.28709715604782,0.96367162466049,-1.22363281250000,-0.47607421875000,-0.01025390625000,0
84,417077936,-0.351245,-0.583643,0.507991,-0.527198,1.00000000000000,-0.00015309359878,0.00001792050898,0.00007504411042,0.08024060726166,-0.01031452417374,-0.01619005203247,9.62919807434082,-1.23822355270386,-1.94290113449097,-2.10527229309082,0.24643453955650,1.03197193145752,-1.22509765625000,-0.47607421875000,-0.00488281250000,0
85,417086269,-0.351292,-0.583569,0.508096,-0.527146,1.00000000000000,-0.00015500281006,0.00001402199268,0.00006855465472,0.08002561330795,-0.01023179292679,-0.01598882675171,9.60339832305908,-1.22823619842529,-1.91879320144653,-2.13152670860291,0.19282394647598,0.94273185729980,-1.22607421875000,-0.47656250000000,-0.00732421875000,0
86,417094602,-0.351343,-0.583509,0.508187,-0.527092,1.00000000000000,-0.00014606490731,0.00001276563853,0.00004975032061,0.08030128479004,-0.01006978750229,-0.01611846685410,9.63649463653564,-1.20866739749908,-1.93435990810394,-2.00861692428589,0.17554713785648,0.68414336442947,-1.22705078125000,-0.47607421875000,-0.00537109375000,0
87,417102935,-0.351404,-0.583430,0.508287,-0.527041,1.00000000000000,-0.00016203150153,0.00002645421773,0.00006027426571,0.08057099580765,-0.00989842414856,-0.01608479022980,9.66888523101807,-1.18812155723572,-1.93019032478333,-2.22818231582642,0.36378619074821,0.82886391878128,-1.22509765625000,-0.47656250000000,-0.00537109375000,0
88,417111268,-0.351508,-0.583339,0.508398,-0.526965,1.00000000000000,-0.00020951032639,0.00003566127270,0.00004154723138,0.08074939250946,-0.01004141569138,-0.01639580726624,9.69034004211426,-1.20500588417053,-1.96745705604553,-2.88108921051025,0.49039733409882,0.57133835554123,-1.22558593750000,-0.47802734375000,-0.00781250000000,0
89,417119601,-0.351634,-0.583224,0.508531,-0.526880,0.99999994039536,-0.00024760607630,0.00004648417234,0.00005198828876,0.08060055971146,-0.01004338264465,-0.01632875204086,9.67247867584229,-1.20527005195618,-1.95939230918884,-3.40496468544006,0.63922894001007,0.71491903066635,-1.22558593750000,-0.47705078125000,-0.00976562500000,0
90,417127934,-0.351774,-0.583103,0.508666,-0.526792,0.99999994039536,-0.00025956705213,0.00005483627319,0.00004718266428,0.08045756816864,-0.01006287336349,-0.01660048961639,9.65533638000488,-1.20754253864288,-1.99196100234985,-3.56944608688354,0.75408297777176,0.64883416891098,-1.22509765625000,-0.47851562500000,-0.00830078125000,0
91,417136267,-0.351892,-0.582994,0.508798,-0.526705,0.99999994039536,-0.00024068914354,0.00003855209798,0.00005251821131,0.08046597242355,-0.01061940193176,-0.01673370599747,9.65631294250488,-1.27440190315247,-2.00806212425232,-3.30984568595886,0.53015059232712,0.72220605611801,-1.22460937500000,-0.47265625000000,-0.00878906250000,0
92,417144600,-0.351956,-0.582907,0.508917,-0.526645,1.00000000000000,-0.00018063746393,0.00001962389797,0.00007034000009,0.08020985126495,-0.01062029600143,-0.01668006181717,9.62552738189697,-1.27473402023315,-2.00172019004822,-2.48404288291931,0.26985877752304,0.96728318929672,-1.22412109375000,-0.47753906250000,-0.00830078125000,0
93,417152933,-0.351983,-0.582839,0.508992,-0.526630,1.00000000000000,-0.00010653398931,0.00003319885582,0.00007143896073,0.08023762702942,-0.01096487045288,-0.01649516820908,9.62885189056396,-1.31664693355560,-1.97919499874115,-1.46500623226166,0.45653533935547,0.98239558935165,-1.22607421875000,-0.47558593750000,-0.00683593750000,0
94,417161266,-0.351971,-0.582804,0.509034,-0.526635,1.00000000000000,-0.00004532560706,0.00001848023385,0.00006184075028,0.08051544427872,-0.01108801364899,-0.01634544134140,9.66223907470703,-1.33061468601227,-1.96153092384338,-0.62329679727554,0.25413161516190,0.85040533542633,-1.22656250000000,-0.47363281250000,-0.00634765625000,0
95,417169599,-0.351921,-0.582811,0.509033,-0.526662,1.00000000000000,0.00002610590309,0.00000562611967,0.00004443246871,0.08046776056290,-0.01101356744766,-0.01639419794083,9.65651702880859,-1.32168090343475,-1.96738231182098,0.35899630188942,0.07736780494452,0.61101472377777,-1.22851562500000,-0.47412109375000,-0.00683593750000,0
96,417177932,-0.351852,-0.582842,0.509000,-0.526705,1.00000000000000,0.00007130857557,0.00000390131027,0.00002807099372,0.08036005496979,-0.01106280088425,-0.01621443033218,9.64359188079834,-1.32758927345276,-1.94580984115601,0.98060250282288,0.05364901199937,0.38601928949356,-1.22802734375000,-0.47656250000000,-0.01025390625000,0
97,417186265,-0.351755,-0.582888,0.508943,-0.526774,1.00000000000000,0.00011794734746,0.00000503566116,0.00003147404641,0.08022415637970,-0.01059705018997,-0.01617783308029,9.62722301483154,-1.27275872230530,-1.94102096557617,1.62195730209351,0.06924808025360,0.43281653523445,-1.22607421875000,-0.47509765625000,-0.01220703125000,0
98,417194598,-0.351609,-0.582964,0.508857,-0.526870,1.00000000000000,0.00018578302115,-0.00000963732600,0.00003414694220,0.08022588491440,-0.01034861803055,-0.01622885465622,9.62744045257568,-1.24245893955231,-1.94742536544800,2.55480217933655,-0.13252803683281,0.46957296133041,-1.22607421875000,-0.47265625000000,-0.00537109375000,0
99,417202931,-0.351447,-0.583055,0.508760,-0.526971,1.00000000000000,0.00020908378065,-0.00001935567707,0.00002946890891,0.08039402961731,-0.01003104448318,-0.01628571748734,9.64757251739502,-1.20469200611115,-1.95427787303925,2.87522363662720,-0.26617035269737,0.40524277091026,-1.22607421875000,-0.47412109375000,-0.00585937500000,0
100,417211264,-0.351282,-0.583136,0.508673,-0.527076,1.00000000000000,0.00020433869213,-0.00001594796777,0.00004379171878,0.08052217960358,-0.00958913564682,-0.01635622978210,9.66299247741699,-1.15130138397217,-1.96277081966400,2.80997133255005,-0.21930906176567,0.60220342874527,-1.22607421875000,-0.47607421875000,-0.00830078125000,0
101,417219597,-0.351145,-0.583194,0.508607,-0.527166,1.00000000000000,0.00016075279564,-0.00000611692667,0.00004865322262,0.08059060573578,-0.00956159830093,-0.01631534099579,9.67118740081787,-1.14826619625092,-1.95778679847717,2.21059799194336,-0.08411713689566,0.66905659437180,-1.22314453125000,-0.47607421875000,-0.00585937500000,0
102,417227930,-0.351042,-0.583229,0.508562,-0.527241,1.00000000000000,0.00011414382607,0.00000691879541,0.00004817824811,0.08058148622513,-0.00993913412094,-0.01617163419724,9.67007827758789,-1.19407403469086,-1.94027984142303,1.56965303421021,0.09514407068491,0.66252499818802,-1.22314453125000,-0.47607421875000,-0.00683593750000,0
103,417236263,-0.350941,-0.583262,0.508520,-0.527311,1.00000000000000,0.00010886322707,0.00000472273678,0.00004898104817,0.08051168918610,-0.01031857728958,-0.01635104417801,9.66178798675537,-1.23827874660492,-1.96220362186432,1.49703657627106,0.06494488567114,0.67356467247009,-1.22802734375000,-0.47460937500000,-0.00634765625000,0
104,417244596,-0.350832,-0.583296,0.508476,-0.527389,1.00000000000000,0.00011821743101,0.00000607501715,0.00005329493433,0.08027189970016,-0.01060909032822,-0.01631736755371,9.63291358947754,-1.27445888519287,-1.95779252052307,1.62567138671875,0.08354082703590,0.73288726806641,-1.22705078125000,-0.47509765625000,-0.00878906250000,0
105,417252929,-0.350737,-0.583326,0.508438,-0.527456,1.00000000000000,0.00010067690164,0.00000658538193,0.00004873331636,0.08000725507736,-0.01041567325592,-0.01640439033508,9.60125350952148,-1.24993050098419,-1.96860480308533,1.38446223735809,0.09055912494659,0.67015796899796,-1.22460937500000,-0.47265625000000,-0.00537109375000,0
106,417261262,-0.350659,-0.583343,0.508411,-0.527514,1.00000000000000,0.00007557217032,0.00001306366175,0.00004934612662,0.08015835285187,-0.01054871082306,-0.01623606681824,9.61938667297363,-1.26589584350586,-1.94840586185455,1.03923344612122,0.17964543402195,0.67858511209488,-1.23046875000000,-0.47509765625000,-0.01025390625000,0
107,417269595,-0.350610,-0.583352,0.508401,-0.527546,1.00000000000000,0.00003284495324,0.00001116003841,0.00003933254629,0.08035349845886,-0.01047289371490,-0.01618546247482,9.64280509948730,-1.25679743289948,-1.94233310222626,0.45166856050491,0.15346768498421,0.54088294506073,-1.22314453125000,-0.47509765625000,-0.00439453125000,0
108,417277928,-0.350585,-0.583348,0.508399,-0.527570,1.00000000000000,0.00000709388405,0.00002293940634,0.00003435928375,0.08065831661224,-0.01014339923859,-0.01596128940582,9.67938613891602,-1.21725666522980,-1.91543138027191,0.09755180776119,0.31545209884644,0.47249296307564,-1.22412109375000,-0.47070312500000,-0.00585937500000,0
109,417286261,-0.350575,-0.583330,0.508409,-0.527587,1.00000000000000,-0.00001724995673,0.00002895761281,0.00003832485527,0.08075428009033,-0.00988620519638,-0.01606595516205,9.69090080261230,-1.18639194965363,-1.92799162864685,-0.23721343278885,0.39821168780327,0.52702569961548,-1.22363281250000,-0.47265625000000,-0.00537109375000,0
110,417294594,-0.350577,-0.583297,0.508425,-0.527606,1.00000000000000,-0.00003204494715,0.00004205014557,0.00004341732711,0.08069038391113,-0.01003843545914,-0.01625466346741,9.68323230743408,-1.20466029644012,-1.95063745975494,-0.44066727161407,0.57825410366058,0.59705495834351,-1.22607421875000,-0.47460937500000,-0.00585937500000,0
111,417302927,-0.350597,-0.583256,0.508463,-0.527603,1.00000000000000,-0.00006681680679,0.00003531668335,0.00004397425801,0.08035159111023,-0.01019632816315,-0.01616162061691,9.64257621765137,-1.22360825538635,-1.93947196006775,-0.91883379220963,0.48565873503685,0.60471367835999,-1.22314453125000,-0.47412109375000,-0.00732421875000,0
112,417311260,-0.350628,-0.583210,0.508509,-0.527588,1.00000000000000,-0.00008576549590,0.00003340560943,0.00003981124610,0.08034390211105,-0.01034432649612,-0.01638245582581,9.64165306091309,-1.24136853218079,-1.96597290039062,-1.17940735816956,0.45937845110893,0.54746580123901,-1.22607421875000,-0.47509765625000,-0.00830078125000,0
113,417319593,-0.350674,-0.583153,0.508568,-0.527564,1.00000000000000,-0.00011032819748,0.00003733206540,0.00004351790994,0.08015477657318,-0.01065474748611,-0.01624250411987,9.61899089813232,-1.27901327610016,-1.94875824451447,-1.51718223094940,0.51337331533432,0.59843820333481,-1.22656250000000,-0.47656250000000,-0.00781250000000,0
114,417327926,-0.350753,-0.583078,0.508644,-0.527521,1.00000000000000,-0.00015384517610,0.00004642363638,0.00003743823618,0.08028763532639,-0.01049417257309,-0.01655536890030,9.63495063781738,-1.25941133499146,-1.98644602298737,-2.11560773849487,0.63839638233185,0.51483333110809,-1.22412109375000,-0.47656250000000,-0.00683593750000,0
115,417336259,-0.350848,-0.582985,0.508741,-0.527467,1.00000000000000,-0.00018665939569,0.00004985649139,0.00004811864346,0.08042001724243,-0.01064372062683,-0.01651108264923,9.65081596374512,-1.27736866474152,-1.98122668266296,-2.56685376167297,0.68560349941254,0.66170537471771,-1.22705078125000,-0.47314453125000,-0.00732421875000,0
116,417344592,-0.350971,-0.582881,0.508848,-0.527397,1.00000000000000,-0.00021992996335,0.00005778763443,0.00003673229367,0.08050227165222,-0.01034855842590,-0.01641911268234,9.66073417663574,-1.24178838729858,-1.97005188465118,-3.02437543869019,0.79466885328293,0.50512552261353,-1.22802734375000,-0.47558593750000,-0.00781250000000,0
117,417352925,-0.351112,-0.582766,0.508961,-0.527320,0.99999994039536,-0.00024114549160,0.00006588082761,0.00003595370799,0.08034646511078,-0.01010972261429,-0.01624941825867,9.64204025268555,-1.21309983730316,-1.94968795776367,-3.31612133979797,0.90596258640289,0.49441877007484,-1.22607421875000,-0.47656250000000,-0.00781250000000,0
118,417361258,-0.351274,-0.582638,0.509087,-0.527232,0.99999994039536,-0.00027018785477,0.00007310044020,0.00003374461085,0.08054518699646,-0.01024711132050,-0.01615303754807,9.66592121124268,-1.22948038578033,-1.93802082538605,-3.71549820899963,1.00524342060089,0.46404027938843,-1.22509765625000,-0.47412109375000,-0.01269531250000,0
119,417369591,-0.351426,-0.582507,0.509211,-0.527156,0.99999994039536,-0.00025843270123,0.00007707346231,0.00004428531975,0.08027327060699,-0.01034379005432,-0.01620101928711,9.63329124450684,-1.24121379852295,-1.94369518756866,-3.55384659767151,1.05987846851349,0.60899114608765,-1.22460937500000,-0.47558593750000,-0.00732421875000,0
120,417377924,-0.351547,-0.582393,0.509322,-0.527094,1.00000000000000,-0.00022103451192,0.00006486196071,0.00004934426397,0.08025699853897,-0.01028829813004,-0.01600164175034,9.63129234313965,-1.23469960689545,-1.91989576816559,-3.03956413269043,0.89195162057877,0.67855948209763,-1.22656250000000,-0.47412109375000,-0.00634765625000,0
121,417386257,-0.351615,-0.582310,0.509406,-0.527059,1.00000000000000,-0.00014998670667,0.00004709884524,0.00005523301661,0.08028513193130,-0.01042872667313,-0.01611608266830,9.63462448120117,-1.25175702571869,-1.93372166156769,-2.06254768371582,0.64768147468567,0.75953888893127,-1.22509765625000,-0.47363281250000,-0.00830078125000,0
122,417394590,-0.351638,-0.582266,0.509453,-0.527047,1.00000000000000,-0.00008004624397,0.00002905912697,0.00004579499364,0.08030474185944,-0.01058846712112,-0.01600795984268,9.63695430755615,-1.27066683769226,-1.92103219032288,-1.10075879096985,0.39960765838623,0.62975156307220,-1.22656250000000,-0.47412109375000,-0.01318359375000,0
123,417402923,-0.351616,-0.582246,0.509475,-0.527064,1.00000000000000,-0.00001678150147,0.00002049840987,0.00005266070366,0.08040612936020,-0.01086223125458,-0.01598775386810,9.64912033081055,-1.30351984500885,-1.91860711574554,-0.23077143728733,0.28188464045525,0.72416561841965,-1.22363281250000,-0.47460937500000,-0.00878906250000,0
124,417411256,-0.351568,-0.582238,0.509466,-0.527113,1.00000000000000,0.00003488641232,0.00002987030894,0.00005340296775,0.08036249876022,-0.01080811023712,-0.01603162288666,9.64388465881348,-1.29702496528625,-1.92387151718140,0.47974181175232,0.41076266765594,0.73437285423279,-1.22460937500000,-0.47558593750000,-0.00830078125000,0
125,417419589,-0.351508,-0.582248,0.509437,-0.527169,1.00000000000000,0.00006255600601,0.00002482626587,0.00004173349589,0.08046293258667,-0.01077038049698,-0.01604086160660,9.65593719482422,-1.29249727725983,-1.92498028278351,0.86024135351181,0.34139931201935,0.57389974594116,-1.22460937500000,-0.47265625000000,-0.00732421875000,0
126,417427922,-0.351453,-0.582267,0.509394,-0.527227,1.00000000000000,0.00007050391287,0.00002991128713,0.00002555083483,0.08063936233521,-0.01041644811630,-0.01603496074677,9.67710971832275,-1.25002372264862,-1.92427206039429,0.96953725814819,0.41132622957230,0.35136333107948,-1.22705078125000,-0.47314453125000,-0.00878906250000,0
127,417436255,-0.351416,-0.582281,0.509356,-0.527272,1.00000000000000,0.00005021225661,0.00003170128912,0.00001884717494,0.08046066761017,-0.01013475656509,-0.01642066240311,9.65566539764404,-1.21621930599213,-1.97055816650391,0.69049572944641,0.43594145774841,0.25917765498161,-1.22314453125000,-0.47412109375000,-0.00585937500000,0
128,417444588,-0.351395,-0.582278,0.509332,-0.527314,1.00000000000000,0.00002499576658,0.00004186574370,0.00002539623529,0.08043926954269,-0.01024097204208,-0.01646429300308,9.65309810638428,-1.22896575927734,-1.97579407691956,0.34373021125793,0.57571828365326,0.34923726320267,-1.22607421875000,-0.47216796875000,-0.01025390625000,0
129,417452921,-0.351367,-0.582263,0.509331,-0.527349,1.00000000000000,0.00000971648842,0.00003291387111,0.00004639569670,0.08029979467392,-0.01029509305954,-0.01629412174225,9.63636016845703,-1.23546051979065,-1.95537269115448,0.13361665606499,0.45261630415916,0.63801217079163,-1.22363281250000,-0.47363281250000,-0.00976562500000,0
130,417461254,-0.351335,-0.582239,0.509337,-0.527391,1.00000000000000,0.00000847969204,0.00003686826676,0.00005987938493,0.08033299446106,-0.01021355390549,-0.01643902063370,9.64034461975098,-1.22567546367645,-1.97276127338409,0.11660880595446,0.50699532032013,0.82343357801437,-1.22509765625000,-0.47607421875000,-0.00927734375000,0
131,417469587,-0.351278,-0.582224,0.509332,-0.527450,1.00000000000000,0.00004069134593,0.00003333389759,0.00006681680679,0.08033800125122,-0.01025992631912,-0.01651537418365,9.64094543457031,-1.23124027252197,-1.98192405700684,0.55956858396530,0.45839235186577,0.91883385181427,-1.22607421875000,-0.47363281250000,-0.00927734375000,0
132,417477920,-0.351224,-0.582213,0.509330,-0.527501,1.00000000000000,0.00003464519978,0.00002682209015,0.00006330385804,0.08034211397171,-0.01036137342453,-0.01657682657242,9.64143943786621,-1.24341475963593,-1.98929882049561,0.47642475366592,0.36884498596191,0.87052536010742,-1.22656250000000,-0.47216796875000,-0.00830078125000,0
133,417486253,-0.351169,-0.582194,0.509337,-0.527551,1.00000000000000,0.00002740509808,0.00002728775144,0.00007341988385,0.08050423860550,-0.01062667369843,-0.01646661758423,9.66089439392090,-1.27525174617767,-1.97607302665710,0.37686222791672,0.37524852156639,1.00963628292084,-1.22705078125000,-0.47460937500000,-0.00830078125000,0
134,417494586,-0.351125,-0.582169,0.509339,-0.527605,1.00000000000000,0.00002338085324,0.00003984477371,0.00006721075624,0.08052617311478,-0.01077061891556,-0.01634871959686,9.66352653503418,-1.29252588748932,-1.96192467212677,0.32152265310287,0.54792690277100,0.92425119876862,-1.22509765625000,-0.47363281250000,-0.00878906250000,0
135,417502919,-0.351090,-0.582154,0.509327,-0.527657,1.00000000000000,0.00002792757004,0.00004248972982,0.00004973355681,0.08044332265854,-0.01087886095047,-0.01612633466721,9.65358448028564,-1.30551552772522,-1.93523752689362,0.38404703140259,0.58429908752441,0.68391287326813,-1.22265625000000,-0.47265625000000,-0.00781250000000,0
136,417511252,-0.351055,-0.582143,0.509319,-0.527701,1.00000000000000,0.00002346932888,0.00003509782255,0.00004644505680,0.08041471242905,-0.01078051328659,-0.01611435413361,9.65015220642090,-1.29371356964111,-1.93379998207092,0.32273936271667,0.48264896869659,0.63869088888168,-1.22705078125000,-0.47216796875000,-0.00976562500000,0
137,417519585,-0.351032,-0.582126,0.509314,-0.527740,1.00000000000000,0.00001056957990,0.00004052650183,0.00004472676665,0.08044880628586,-0.01056081056595,-0.01604580879211,9.65424251556396,-1.26734781265259,-1.92557394504547,0.14534796774387,0.55730170011520,0.61506181955338,-1.22656250000000,-0.47314453125000,-0.01220703125000,0
138,417527918,-0.351008,-0.582107,0.509300,-0.527790,1.00000000000000,0.00002051051706,0.00004961248487,0.00004265736789,0.08039814233780,-0.01011508703232,-0.01588374376297,9.64816284179688,-1.21385908126831,-1.90612542629242,0.28205114603043,0.68224793672562,0.58660447597504,-1.22412109375000,-0.47314453125000,-0.00830078125000,0
139,417536251,-0.350999,-0.582087,0.509294,-0.527824,1.00000000000000,-0.00000186823308,0.00004597660154,0.00003646593541,0.08041799068451,-0.01007848978043,-0.01607722043991,9.65054416656494,-1.20946705341339,-1.92934346199036,-0.02569107897580,0.63224899768829,0.50146275758743,-1.22656250000000,-0.47460937500000,-0.00976562500000,0
140,417544584,-0.350998,-0.582056,0.509315,-0.527839,1.00000000000000,-0.00003346055746,0.00003587733954,0.00004581268877,0.08048462867737,-0.00995641946793,-0.01615905761719,9.65854072570801,-1.19481801986694,-1.93916428089142,-0.46013411879539,0.49336859583855,0.62999486923218,-1.22705078125000,-0.47265625000000,-0.00732421875000,0
141,417552917,-0.351013,-0.582009,0.509343,-0.527854,1.00000000000000,-0.00005265511572,0.00005007442087,0.00004952680320,0.08045512437820,-0.01007527112961,-0.01619631052017,9.65500068664551,-1.20908081531525,-1.94363486766815,-0.72408878803253,0.68860018253326,0.68106961250305,-1.22656250000000,-0.47119140625000,-0.01171875000000,0
142,417561250,-0.351040,-0.581941,0.509387,-0.527867,1.00000000000000,-0.00007529743016,0.00006032641977,0.00006316322833,0.08021062612534,-0.01045495271683,-0.01631057262421,9.62565898895264,-1.25464451313019,-1.95734691619873,-1.03545546531677,0.82958108186722,0.86859148740768,-1.22802734375000,-0.47021484375000,-0.00927734375000,0
143,417569583,-0.351074,-0.581877,0.509427,-0.527877,1.00000000000000,-0.00007818080485,0.00006144028157,0.00005312729627,0.08003807067871,-0.01082867383957,-0.01614314317703,9.60495185852051,-1.29949271678925,-1.93725454807281,-1.07510626316071,0.84489828348160,0.73058199882507,-1.22705078125000,-0.47119140625000,-0.00927734375000,0
144,417577916,-0.351106,-0.581814,0.509469,-0.527884,1.00000000000000,-0.00007956847548,0.00005686376244,0.00005352031440,0.08016139268875,-0.01109308004379,-0.01607841253281,9.61975097656250,-1.33122277259827,-1.92948651313782,-1.09418880939484,0.78196412324905,0.73598659038544,-1.22509765625000,-0.47216796875000,-0.00878906250000,0
145,417586249,-0.351158,-0.581744,0.509520,-0.527879,1.00000000000000,-0.00010452233255,0.00006090011448,0.00004882458597,0.08035886287689,-0.01120358705521,-0.01615118980408,9.64354038238525,-1.34495413303375,-1.93743789196014,-1.43734288215637,0.83747023344040,0.67141312360764,-1.22607421875000,-0.47265625000000,-0.00976562500000,0
146,417594582,-0.351232,-0.581677,0.509562,-0.527862,1.00000000000000,-0.00011669099331,0.00006653461605,0.00002527143806,0.08090311288834,-0.01100605726242,-0.01619368791580,9.70891380310059,-1.32080948352814,-1.94253563880920,-1.60468053817749,0.91495329141617,0.34752112627029,-1.22558593750000,-0.47216796875000,-0.00830078125000,0
147,417602915,-0.351320,-0.581611,0.509607,-0.527833,1.00000000000000,-0.00013273954391,0.00006508734077,0.00001621525735,0.08111655712128,-0.01068687438965,-0.01608455181122,9.73451805114746,-1.28234374523163,-1.92959892749786,-1.82537281513214,0.89505100250244,0.22298470139503,-1.22558593750000,-0.47412109375000,-0.01171875000000,0
148,417611248,-0.351416,-0.581526,0.509659,-0.527813,1.00000000000000,-0.00014321692288,0.00008229631931,0.00002765748650,0.08098739385605,-0.01045274734497,-0.01608556509018,9.71900653839111,-1.25437176227570,-1.92968606948853,-1.96945285797119,1.13170087337494,0.38033294677734,-1.22509765625000,-0.47509765625000,-0.01025390625000,0
149,417619581,-0.351521,-0.581430,0.509720,-0.527790,1.00000000000000,-0.00015858933330,0.00008858647197,0.00003252085298,0.08043074607849,-0.01027715206146,-0.01601207256317,9.65218830108643,-1.23331558704376,-1.92094838619232,-2.18084740638733,1.21820008754730,0.44721177220345,-1.22705078125000,-0.47265625000000,-0.00878906250000,0
150,417627914,-0.351635,-0.581333,0.509786,-0.527758,1.00000000000000,-0.00017113238573,0.00008535292000,0.00002892594784,0.08000409603119,-0.01023757457733,-0.01600843667984,9.60097789764404,-1.22851777076721,-1.92060375213623,-2.35333371162415,1.17373394966125,0.39777630567551,-1.22558593750000,-0.47021484375000,-0.00830078125000,0
151,417636247,-0.351722,-0.581254,0.509851,-0.527723,1.00000000000000,-0.00015067309141,0.00006128568202,0.00003198254853,0.07994586229324,-0.01041251420975,-0.01636505126953,9.59397411346436,-1.24956345558167,-1.96345126628876,-2.07198667526245,0.84277236461639,0.43980920314789,-1.22656250000000,-0.47363281250000,-0.00976562500000,0
152,417644580,-0.351761,-0.581198,0.509892,-0.527718,1.00000000000000,-0.00008631870151,0.00005040038377,0.00004190858454,0.08009016513824,-0.01087290048599,-0.01633089780807,9.61120319366455,-1.30480003356934,-1.95978593826294,-1.18701481819153,0.69308274984360,0.57630747556686,-1.22656250000000,-0.46972656250000,-0.00927734375000,0
153,417652913,-0.351758,-0.581163,0.509912,-0.527741,1.00000000000000,-0.00002894736826,0.00004164222628,0.00005167443305,0.08027094602585,-0.01122117042542,-0.01624149084091,9.63289833068848,-1.34659421443939,-1.94905674457550,-0.39807087182999,0.57264471054077,0.71060293912888,-1.22851562500000,-0.47119140625000,-0.01171875000000,0
154,417661246,-0.351759,-0.581137,0.509915,-0.527764,1.00000000000000,-0.00001948699355,0.00004507321864,0.00003452505916,0.08074605464935,-0.01132327318192,-0.01632797718048,9.68991374969482,-1.35884702205658,-1.95943546295166,-0.26797613501549,0.61982607841492,0.47477263212204,-1.22460937500000,-0.46923828125000,-0.01025390625000,0
155,417669579,-0.351755,-0.581123,0.509897,-0.527800,1.00000000000000,0.00000581610948,0.00005140621215,0.00002316851169,0.08085101842880,-0.01133042573929,-0.01618099212646,9.70250797271729,-1.35970532894135,-1.94179630279541,0.07998044788837,0.70691442489624,0.31860265135765,-1.22607421875000,-0.46972656250000,-0.01074218750000,0
156,417677912,-0.351753,-0.581119,0.509856,-0.527846,1.00000000000000,0.00002475548536,0.00005968380719,0.00000799540430,0.08072715997696,-0.01083320379257,-0.01598823070526,9.68764686584473,-1.30003666877747,-1.91866457462311,0.34042596817017,0.82074409723282,0.10994908213615,-1.22558593750000,-0.47216796875000,-0.00927734375000,0
157,417686245,-0.351755,-0.581111,0.509818,-0.527891,1.00000000000000,0.00001876708120,0.00006357673556,0.00000908132643,0.08044385910034,-0.01020628213882,-0.01586544513702,9.65364742279053,-1.22480237483978,-1.90392923355103,0.25807628035545,0.87427794933319,0.12488220632076,-1.22558593750000,-0.47119140625000,-0.01025390625000,0
158,417694578,-0.351760,-0.581097,0.509792,-0.527927,1.00000000000000,0.00000492949039,0.00005861837417,0.00001303013414,0.07995176315308,-0.01025301218033,-0.01596504449844,9.59459304809570,-1.23041045665741,-1.91588163375854,0.06778806447983,0.80609273910522,0.17918437719345,-1.22558593750000,-0.46923828125000,-0.00927734375000,0
159,417702911,-0.351754,-0.581082,0.509779,-0.527961,1.00000000000000,0.00000283028930,0.00004751700908,0.00002891290933,0.08006209135056,-0.01018011569977,-0.01582086086273,9.60783481597900,-1.22166264057159,-1.89857912063599,0.03892082720995,0.65343195199966,0.39759695529938,-1.22753906250000,-0.47216796875000,-0.01220703125000,0
160,417711244,-0.351758,-0.581056,0.509775,-0.527990,1.00000000000000,-0.00001468136907,0.00005208794028,0.00002983119339,0.08016204833984,-0.01021522283554,-0.01594883203506,9.61983013153076,-1.22587573528290,-1.91393625736237,-0.20189142227173,0.71628934144974,0.41022482514381,-1.22802734375000,-0.47460937500000,-0.01074218750000,0
161,417719577,-0.351759,-0.581041,0.509777,-0.528005,1.00000000000000,-0.00001879781485,0.00003470759839,0.00002633873373,0.08049410581589,-0.01022344827652,-0.01601403951645,9.65967750549316,-1.22686326503754,-1.92176163196564,-0.25849884748459,0.47728285193443,0.36219808459282,-1.22753906250000,-0.47314453125000,-0.00976562500000,0
162,417727910,-0.351770,-0.581021,0.509769,-0.528027,1.00000000000000,-0.00001816079021,0.00005003344268,0.00001862924546,0.08065176010132,-0.01062357425690,-0.01625674962997,9.67859745025635,-1.27487981319427,-1.95088779926300,-0.24973876774311,0.68803673982620,0.25618076324463,-1.22753906250000,-0.46972656250000,-0.00976562500000,0
163,417736243,-0.351768,-0.581005,0.509756,-0.528057,1.00000000000000,-0.00000226683915,0.00004808511585,0.00002518948168,0.08034271001816,-0.01073092222214,-0.01599699258804,9.64151096343994,-1.28776192665100,-1.91971600055695,-0.03117252327502,0.66124427318573,0.34639412164688,-1.22509765625000,-0.46875000000000,-0.01171875000000,0
164,417744576,-0.351760,-0.580996,0.509737,-0.528092,1.00000000000000,0.00000933092088,0.00004624295980,0.00002196710557,0.08022105693817,-0.01119220256805,-0.01601380109787,9.62691116333008,-1.34311795234680,-1.92173290252686,0.12831449508667,0.63591182231903,0.30208146572113,-1.22656250000000,-0.46875000000000,-0.00781250000000,0
165,417752909,-0.351745,-0.580995,0.509716,-0.528123,1.00000000000000,0.00001590792090,0.00003595370799,0.00001947116107,0.08044809103012,-0.01130741834641,-0.01590347290039,9.65415668487549,-1.35694432258606,-1.90849292278290,0.21875837445259,0.49441877007484,0.26775839924812,-1.22460937500000,-0.47070312500000,-0.01025390625000,0
166,417761242,-0.351734,-0.581008,0.509678,-0.528153,1.00000000000000,0.00002651568502,0.00003766920418,-0.00000016577542,0.08066540956497,-0.01124018430710,-0.01594573259354,9.68023586273193,-1.34887599945068,-1.91356432437897,0.36463144421577,0.51800948381424,-0.00227966695093,-1.22460937500000,-0.47363281250000,-0.01025390625000,0
167,417769575,-0.351712,-0.581022,0.509631,-0.528197,1.00000000000000,0.00004524085671,0.00004179496318,0.00000503193587,0.08067798614502,-0.01100099086761,-0.01584899425507,9.68174457550049,-1.32017159461975,-1.90195524692535,0.62213134765625,0.57474505901337,0.06919685751200,-1.22363281250000,-0.47216796875000,-0.01074218750000,0
168,417777908,-0.351678,-0.581045,0.509579,-0.528245,1.00000000000000,0.00005978811532,0.00003470014781,0.00000479351729,0.08059954643250,-0.01066470146179,-0.01592427492142,9.67233276367188,-1.27981507778168,-1.91098916530609,0.82217860221863,0.47718045115471,0.06591823697090,-1.22460937500000,-0.47119140625000,-0.01074218750000,0
169,417786241,-0.351629,-0.581075,0.509524,-0.528298,1.00000000000000,0.00007576029748,0.00002757925540,0.00000925641507,0.08052265644073,-0.01043874025345,-0.01581102609634,9.66310501098633,-1.25269889831543,-1.89739882946014,1.04182052612305,0.37925714254379,0.12728992104530,-1.22607421875000,-0.47314453125000,-0.01074218750000,0
170,417794574,-0.351558,-0.581123,0.509454,-0.528359,1.00000000000000,0.00010662060231,0.00001723412424,0.00000582169741,0.08030664920807,-0.01050215959549,-0.01606351137161,9.63718223571777,-1.26030969619751,-1.92769861221313,1.46619737148285,0.23699572682381,0.08005729317665,-1.22656250000000,-0.47167968750000,-0.01123046875000,0
171,417802907,-0.351470,-0.581190,0.509365,-0.528429,1.00000000000000,0.00013725459576,0.00000961683691,-0.00000201817602,0.08006167411804,-0.01063680648804,-0.01606780290604,9.60781764984131,-1.27685344219208,-1.92779195308685,1.88746178150177,0.13224630057812,-0.02775302529335,-1.22509765625000,-0.47265625000000,-0.00927734375000,0
172,417811240,-0.351356,-0.581252,0.509290,-0.528510,1.00000000000000,0.00014852546155,0.00000125542283,0.00002418830991,0.08004868030548,-0.01093190908432,-0.01594179868698,9.60618591308594,-1.31256115436554,-1.91281986236572,2.04245376586914,0.01726399548352,0.33262649178505,-1.22460937500000,-0.47265625000000,-0.00976562500000,0
173,417819573,-0.351253,-0.581313,0.509209,-0.528589,1.00000000000000,0.00014482904226,0.00000765267760,0.00001728441566,0.08039057254791,-0.01087111234665,-0.01598381996155,9.64724254608154,-1.30520665645599,-1.91776776313782,1.99162197113037,0.10523608326912,0.23768727481365,-1.22460937500000,-0.47216796875000,-0.01025390625000,0
174,417827906,-0.351167,-0.581371,0.509137,-0.528652,1.00000000000000,0.00012110639364,0.00000628735870,0.00000840518624,0.08046770095825,-0.01066750288010,-0.01586413383484,9.65650939941406,-1.28015148639679,-1.90377211570740,1.66539895534515,0.08646083623171,0.11558422446251,-1.22656250000000,-0.47363281250000,-0.01367187500000,0
175,417836239,-0.351101,-0.581435,0.509067,-0.528693,1.00000000000000,0.00009851064533,-0.00000021606684,-0.00001188926399,0.08085817098618,-0.01041382551193,-0.01582264900208,9.70336818695068,-1.24970877170563,-1.89879357814789,1.35467290878296,-0.00297125149518,-0.16349567472935,-1.22460937500000,-0.47314453125000,-0.01123046875000,0
176,417844572,-0.351066,-0.581475,0.509014,-0.528723,1.00000000000000,0.00005714502186,0.00001518707722,-0.00001043267548,0.08073687553406,-0.01040983200073,-0.01568400859833,9.68881225585938,-1.24923014640808,-1.88215625286102,0.78583186864853,0.20884566009045,-0.14346531033516,-1.22558593750000,-0.47070312500000,-0.00976562500000,0
177,417852905,-0.351064,-0.581486,0.508979,-0.528747,1.00000000000000,0.00001641083509,0.00003743264824,-0.00000433623791,0.08056426048279,-0.01011508703232,-0.01573663949966,9.66809749603271,-1.21385896205902,-1.88847208023071,0.22567419707775,0.51475644111633,-0.05962993204594,-1.22705078125000,-0.47167968750000,-0.00683593750000,0
178,417861238,-0.351075,-0.581485,0.508972,-0.528746,1.00000000000000,-0.00002358481288,0.00002601835877,0.00000280421227,0.08013188838959,-0.01011431217194,-0.01570737361908,9.61621093750000,-1.21376597881317,-1.88496005535126,-0.32432743906975,0.35779240727425,0.03856222704053,-1.22460937500000,-0.47265625000000,-0.00927734375000,0
179,417869571,-0.351097,-0.581473,0.508983,-0.528735,1.00000000000000,-0.00004771165550,0.00002646353096,0.00000906456262,0.08031666278839,-0.01024883985519,-0.01587539911270,9.63838481903076,-1.22990989685059,-1.90512394905090,-0.65610861778259,0.36391422152519,0.12465167045593,-1.22607421875000,-0.47216796875000,-0.01220703125000,0
180,417877904,-0.351125,-0.581451,0.509008,-0.528716,1.00000000000000,-0.00006719864905,0.00002420600504,0.00001634564251,0.08045613765717,-0.01051801443100,-0.01607203483582,9.65512180328369,-1.26221215724945,-1.92872118949890,-0.92408466339111,0.33286976814270,0.22477771341801,-1.22363281250000,-0.47412109375000,-0.01025390625000,0
181,417886237,-0.351151,-0.581431,0.509034,-0.528695,1.00000000000000,-0.00006585009396,0.00002069864422,0.00001630280167,0.08037984371185,-0.01103192567825,-0.01570987701416,9.64596652984619,-1.32388389110565,-1.88526034355164,-0.90553998947144,0.28463819622993,0.22418858110905,-1.22558593750000,-0.47265625000000,-0.01220703125000,0
182,417894570,-0.351179,-0.581414,0.509059,-0.528672,1.00000000000000,-0.00006695464253,0.00001920294017,0.00001171696931,0.08048009872437,-0.01121479272842,-0.01594591140747,9.65799713134766,-1.34582877159119,-1.91358566284180,-0.92072927951813,0.26406994462013,0.16112634539604,-1.22558593750000,-0.47314453125000,-0.01025390625000,0
183,417902903,-0.351235,-0.581397,0.509076,-0.528637,1.00000000000000,-0.00008532404900,0.00003038253635,-0.00001029483974,0.08062791824341,-0.01163548231125,-0.01594716310501,9.67573642730713,-1.39631366729736,-1.91373598575592,-1.17333686351776,0.41780656576157,-0.14156986773014,-1.22363281250000,-0.47314453125000,-0.00976562500000,0
184,417911236,-0.351287,-0.581396,0.509078,-0.528602,1.00000000000000,-0.00006931833923,0.00002367887646,-0.00002664327621,0.08085864782333,-0.01113837957382,-0.01588100194931,9.70342540740967,-1.33665895462036,-1.90579628944397,-0.95323371887207,0.32562094926834,-0.36638599634171,-1.22558593750000,-0.47119140625000,-0.00927734375000,0
185,417919569,-0.351309,-0.581407,0.509057,-0.528595,1.00000000000000,-0.00002117641270,0.00002748612314,-0.00001963600516,0.08077692985535,-0.01056778430939,-0.01587826013565,9.69361877441406,-1.26818478107452,-1.90546727180481,-0.29120823740959,0.37797647714615,-0.27002528309822,-1.22607421875000,-0.47021484375000,-0.01074218750000,0
186,417927902,-0.351326,-0.581415,0.509036,-0.528596,1.00000000000000,-0.00001540780067,0.00003031920642,-0.00001294538379,0.08035826683044,-0.01022696495056,-0.01596760749817,9.64337539672852,-1.22728502750397,-1.91618907451630,-0.21188096702099,0.41693574190140,-0.17801894247532,-1.22705078125000,-0.47070312500000,-0.01171875000000,0
187,417936235,-0.351331,-0.581429,0.509034,-0.528579,1.00000000000000,-0.00002555735409,0.00000411365181,-0.00000404007733,0.08024978637695,-0.01038092374802,-0.01593226194382,9.63035869598389,-1.24576056003571,-1.91194772720337,-0.35145291686058,0.05656903609633,-0.05555727332830,-1.22656250000000,-0.47314453125000,-0.00830078125000,0
188,417944568,-0.351324,-0.581442,0.509029,-0.528573,1.00000000000000,-0.00001175329089,0.00000612158328,0.00000387523323,0.08034569025040,-0.01061594486237,-0.01554542779922,9.64186763763428,-1.27396428585052,-1.86552584171295,-0.16162580251694,0.08418118953705,0.05329041555524,-1.22460937500000,-0.47167968750000,-0.01025390625000,0
189,417952901,-0.351311,-0.581465,0.509019,-0.528566,1.00000000000000,-0.00000194087625,-0.00000092945993,-0.00000135600567,0.08059436082840,-0.01041388511658,-0.01532411575317,9.67170906066895,-1.24971616268158,-1.83896732330322,-0.02669003419578,-0.01278150454164,-0.01864716410637,-1.22509765625000,-0.47167968750000,-0.01269531250000,0
190,417961234,-0.351267,-0.581504,0.508993,-0.528578,1.00000000000000,0.00003925245255,-0.00000814720988,0.00000453088433,0.08054852485657,-0.01029103994370,-0.01583278179169,9.66620922088623,-1.23497414588928,-1.90000963211060,0.53978157043457,-0.11203667521477,0.06230662763119,-1.22460937500000,-0.47412109375000,-0.01220703125000,0
191,417969567,-0.351235,-0.581527,0.508977,-0.528589,1.00000000000000,0.00002036523074,0.00000134203583,0.00001149158925,0.08025056123734,-0.01027333736420,-0.01576507091522,9.63045215606689,-1.23284983634949,-1.89188480377197,0.28005328774452,0.01845505833626,0.15802703797817,-1.22509765625000,-0.47119140625000,-0.00830078125000,0
192,417977900,-0.351225,-0.581557,0.508965,-0.528574,1.00000000000000,-0.00000436604023,-0.00000718608499,-0.00001017004251,0.08021605014801,-0.01018387079239,-0.01614588499069,9.62631034851074,-1.22211325168610,-1.93758356571198,-0.06003976613283,-0.09881971776485,-0.13985371589661,-1.22558593750000,-0.47314453125000,-0.00976562500000,0
193,417986233,-0.351213,-0.581589,0.508950,-0.528562,1.00000000000000,0.00000004563481,-0.00000569596887,-0.00001009553671,0.08045965433121,-0.01036250591278,-0.01619601249695,9.65554237365723,-1.24355030059814,-1.94359922409058,0.00062754878309,-0.07832833379507,-0.13882914185524,-1.22509765625000,-0.47216796875000,-0.01269531250000,0
194,417994566,-0.351185,-0.581615,0.508933,-0.528568,1.00000000000000,0.00001789536327,-0.00000033900142,0.00000566523522,0.08043825626373,-0.01057606935501,-0.01632380485535,9.65297603607178,-1.26917898654938,-1.95893478393555,0.24608878791332,-0.00466179149225,0.07790569961071,-1.22607421875000,-0.47363281250000,-0.00732421875000,0
195,418002899,-0.351154,-0.581638,0.508910,-0.528585,1.00000000000000,0.00002722535282,0.00000797118992,0.00001006107777,0.08052718639374,-0.01094847917557,-0.01618272066116,9.66364860534668,-1.31386995315552,-1.94200396537781,0.37439048290253,0.10961612313986,0.13835528492928,-1.22460937500000,-0.47119140625000,-0.00585937500000,0
196,418011232,-0.351130,-0.581653,0.508887,-0.528607,1.00000000000000,0.00002217572182,0.00001925509423,0.00001042801887,0.08060240745544,-0.01106780767441,-0.01627987623215,9.67267513275146,-1.32818996906281,-1.95366311073303,0.30495029687881,0.26478719711304,0.14340132474899,-1.22412109375000,-0.47167968750000,-0.00976562500000,0
197,418019565,-0.351103,-0.581674,0.508841,-0.528646,1.00000000000000,0.00004713889211,0.00003272201866,0.00000316556543,0.08054834604263,-0.01082903146744,-0.01606130599976,9.66618728637695,-1.29953563213348,-1.92743372917175,0.64823222160339,0.44997805356979,0.04353139176965,-1.22460937500000,-0.47314453125000,-0.00830078125000,0
198,418027898,-0.351076,-0.581710,0.508784,-0.528680,1.00000000000000,0.00005680043250,0.00002472754568,-0.00001369602978,0.08038973808289,-0.01006114482880,-0.01601463556290,9.64715385437012,-1.20738554000854,-1.92183303833008,0.78109323978424,0.34004178643227,-0.18834146857262,-1.22558593750000,-0.47167968750000,-0.01171875000000,0
199,418036231,-0.351059,-0.581736,0.508739,-0.528705,1.00000000000000,0.00003552343696,0.00002669449896,-0.00000913254917,0.08033847808838,-0.01001149415970,-0.01611930131912,9.64100265502930,-1.20142722129822,-1.93439340591431,0.48850184679031,0.36709037423134,-0.12558658421040,-1.22607421875000,-0.47265625000000,-0.00830078125000,0
200,418044564,-0.351049,-0.581750,0.508708,-0.528726,1.00000000000000,0.00001727603376,0.00002916529775,-0.00000034179538,0.08008360862732,-0.01004052162170,-0.01610934734344,9.61041641235352,-1.20491099357605,-1.93319892883301,0.23757204413414,0.40106770396233,-0.00470021227375,-1.22753906250000,-0.47265625000000,-0.01123046875000,0
201,418052897,-0.351016,-0.581762,0.508685,-0.528758,1.00000000000000,0.00003246963024,0.00002101622522,0.00002141296864,0.08027493953705,-0.01035743951797,-0.01599788665771,9.63337707519531,-1.24294233322144,-1.91982305049896,0.44650733470917,0.28900539875031,0.29446122050285,-1.22509765625000,-0.47119140625000,-0.01220703125000,0
202,418061230,-0.350984,-0.581780,0.508649,-0.528793,1.00000000000000,0.00004224013537,0.00002580415457,0.00001059938222,0.08021634817123,-0.01070070266724,-0.01615607738495,9.62634658813477,-1.28413558006287,-1.93880665302277,0.58086681365967,0.35484683513641,0.14575779438019,-1.22558593750000,-0.47167968750000,-0.01074218750000,0
203,418069563,-0.350956,-0.581801,0.508621,-0.528816,1.00000000000000,0.00003024470061,0.00001609046012,0.00000826735049,0.08046901226044,-0.01076489686966,-0.01604008674622,9.65666675567627,-1.29183924198151,-1.92488729953766,0.41591107845306,0.22126854956150,0.11368878185749,-1.22460937500000,-0.47265625000000,-0.00976562500000,0
204,418077896,-0.350946,-0.581808,0.508594,-0.528841,1.00000000000000,0.00001465808600,0.00003395695239,0.00000678282231,0.08063763380051,-0.01059460639954,-0.01633638143539,9.67690277099609,-1.27140355110168,-1.96044409275055,0.20157124102116,0.46696034073830,0.09327424317598,-1.22460937500000,-0.47363281250000,-0.00976562500000,0
205,418086229,-0.350932,-0.581812,0.508564,-0.528875,1.00000000000000,0.00002369098365,0.00003855116665,0.00001180730760,0.08057308197021,-0.01060491800308,-0.01638180017471,9.66915607452393,-1.27264094352722,-1.96589446067810,0.32578748464584,0.53013783693314,0.16236865520477,-1.22753906250000,-0.47363281250000,-0.01074218750000,0
206,418094562,-0.350897,-0.581836,0.508525,-0.528908,1.00000000000000,0.00004624854773,0.00002118106931,0.00000839214772,0.08023643493652,-0.01105773448944,-0.01622962951660,9.62875652313232,-1.32698106765747,-1.94763326644897,0.63598871231079,0.29127231240273,0.11540494859219,-1.22412109375000,-0.47460937500000,-0.00732421875000,0
207,418102895,-0.350869,-0.581849,0.508493,-0.528943,1.00000000000000,0.00003598164767,0.00002892408520,0.00001325737685,0.08022928237915,-0.01105433702469,-0.01606178283691,9.62789916992188,-1.32657325267792,-1.92749071121216,0.49480292201042,0.39775061607361,0.18230929970741,-1.22509765625000,-0.47363281250000,-0.01171875000000,0
208,418111228,-0.350841,-0.581867,0.508460,-0.528974,1.00000000000000,0.00003610271960,0.00002391915768,0.00000905338675,0.08015775680542,-0.01080238819122,-0.01587146520615,9.61931514739990,-1.29633831977844,-1.90465188026428,0.49646788835526,0.32892519235611,0.12449797987938,-1.22363281250000,-0.47070312500000,-0.00927734375000,0
209,418119561,-0.350831,-0.581883,0.508432,-0.528991,1.00000000000000,0.00001455377787,0.00002418179065,-0.00000059604645,0.08047753572464,-0.01035928726196,-0.01571518182755,9.65769004821777,-1.24316406250000,-1.88589715957642,0.20013682544231,0.33253678679466,-0.00819655507803,-1.22656250000000,-0.47265625000000,-0.00830078125000,0
210,418127894,-0.350848,-0.581888,0.508412,-0.528993,1.00000000000000,-0.00001616030931,0.00003335531801,-0.00001093372703,0.08074533939362,-0.00988197326660,-0.01582533121109,9.68982791900635,-1.18588411808014,-1.89911556243896,-0.22222909331322,0.45868691802025,-0.15035556256771,-1.22705078125000,-0.46875000000000,-0.01562500000000,0
211,418136227,-0.350876,-0.581874,0.508414,-0.528988,1.00000000000000,-0.00004481896758,0.00003548804671,0.00000440981239,0.08068811893463,-0.00955891609192,-0.01571422815323,9.68296051025391,-1.14711570739746,-1.88578271865845,-0.61632972955704,0.48801520466805,0.06064170971513,-1.22265625000000,-0.47363281250000,-0.00878906250000,0
212,418144560,-0.350900,-0.581851,0.508428,-0.528983,1.00000000000000,-0.00005199201405,0.00003574695438,0.00001725088805,0.08062231540680,-0.00974881649017,-0.01578211784363,9.67506408691406,-1.16990470886230,-1.89392971992493,-0.71497011184692,0.49157559871674,0.23722623288631,-1.22656250000000,-0.47363281250000,-0.00781250000000,0
213,418152893,-0.350931,-0.581819,0.508450,-0.528976,1.00000000000000,-0.00006443262100,0.00003887061030,0.00002257991582,0.08062815666199,-0.01022392511368,-0.01588428020477,9.67576503753662,-1.22691977024078,-1.90618968009949,-0.88604760169983,0.53453063964844,0.31050854921341,-1.22265625000000,-0.47363281250000,-0.01074218750000,0
214,418161226,-0.350957,-0.581783,0.508483,-0.528967,1.00000000000000,-0.00006940960884,0.00003362167627,0.00003236811608,0.08057194948196,-0.01100003719330,-0.01599633693695,9.66901969909668,-1.32005727291107,-1.91963720321655,-0.95448887348175,0.46234971284866,0.44511133432388,-1.22558593750000,-0.47021484375000,-0.00830078125000,0
215,418169559,-0.350979,-0.581755,0.508507,-0.528961,1.00000000000000,-0.00005846470594,0.00003253761679,0.00002726633102,0.08053749799728,-0.01113784313202,-0.01584780216217,9.66488552093506,-1.33659458160400,-1.90181219577789,-0.80397957563400,0.44744226336479,0.37495395541191,-1.22314453125000,-0.47363281250000,-0.01220703125000,0
216,418177892,-0.350992,-0.581743,0.508511,-0.528961,1.00000000000000,-0.00003361143172,0.00002977345139,0.00001260545105,0.08063328266144,-0.01095300912857,-0.01587492227554,9.67638015747070,-1.31441330909729,-1.90506672859192,-0.46220883727074,0.40943074226379,0.17334434390068,-1.22607421875000,-0.47167968750000,-0.00927734375000,0
217,418186225,-0.350998,-0.581742,0.508505,-0.528965,1.00000000000000,-0.00001840293407,0.00002591591328,0.00000777374953,0.08041924238205,-0.01081794500351,-0.01566535234451,9.65069484710693,-1.29820525646210,-1.87991738319397,-0.25306865572929,0.35638368129730,0.10690101981163,-1.22607421875000,-0.47558593750000,-0.01123046875000,0
218,418194558,-0.350991,-0.581746,0.508500,-0.528970,1.00000000000000,-0.00000930950046,0.00001782644540,0.00001245271415,0.08029597997665,-0.01062452793121,-0.01594996452332,9.63590240478516,-1.27499425411224,-1.91407215595245,-0.12801995873451,0.24514101445675,0.17124396562576,-1.22802734375000,-0.47216796875000,-0.01025390625000,0
219,418202891,-0.350995,-0.581751,0.508501,-0.528961,1.00000000000000,-0.00002554617822,0.00001218821853,0.00000481214374,0.08056074380875,-0.01072037220001,-0.01590549945831,9.66767501831055,-1.28649604320526,-1.90873610973358,-0.35129922628403,0.16760674118996,0.06617437303066,-1.22509765625000,-0.47167968750000,-0.01123046875000,0
220,418211224,-0.350992,-0.581755,0.508494,-0.528964,1.00000000000000,-0.00001080520451,0.00001826602966,0.00000901240855,0.08056414127350,-0.01039451360703,-0.01588630676270,9.66808319091797,-1.24739146232605,-1.90643298625946,-0.14858818054199,0.25118598341942,0.12393447756767,-1.22363281250000,-0.47363281250000,-0.01220703125000,0
221,418219557,-0.350983,-0.581751,0.508495,-0.528974,1.00000000000000,-0.00001237448305,0.00002187117934,0.00002339109778,0.08062475919724,-0.01009708642960,-0.01594340801239,9.67535781860352,-1.21169865131378,-1.91328513622284,-0.17016816139221,0.30076235532761,0.32166355848312,-1.22705078125000,-0.47119140625000,-0.01123046875000,0
222,418227890,-0.350981,-0.581733,0.508502,-0.528987,1.00000000000000,-0.00002139247954,0.00003169756383,0.00003060791641,0.08047312498093,-0.01037454605103,-0.01590847969055,9.65716075897217,-1.24499523639679,-1.90909373760223,-0.29417946934700,0.43589022755623,0.42090591788292,-1.22607421875000,-0.47314453125000,-0.00976562500000,0
223,418236223,-0.350996,-0.581712,0.508514,-0.528990,1.00000000000000,-0.00004056468606,0.00003463309258,0.00002287980169,0.08025133609772,-0.01030904054642,-0.01587289571762,9.63054466247559,-1.23713421821594,-1.90482354164124,-0.55782675743103,0.47625827789307,0.31463244557381,-1.22558593750000,-0.47558593750000,-0.00830078125000,0
224,418244556,-0.351020,-0.581681,0.508538,-0.528985,1.00000000000000,-0.00006014294922,0.00003537442535,0.00002743583173,0.08023995161057,-0.01035439968109,-0.01585000753403,9.62917900085449,-1.24257755279541,-1.90207684040070,-0.82705801725388,0.48645275831223,0.37728485465050,-1.22851562500000,-0.47412109375000,-0.01025390625000,0
225,418252889,-0.351041,-0.581653,0.508554,-0.528986,1.00000000000000,-0.00005013402551,0.00003877654672,0.00002478063107,0.08012562990189,-0.01065355539322,-0.01597094535828,9.61545944213867,-1.27847766876221,-1.91658997535706,-0.68941986560822,0.53323715925217,0.34077176451683,-1.22656250000000,-0.47216796875000,-0.01025390625000,0
226,418261222,-0.351056,-0.581628,0.508579,-0.528980,1.00000000000000,-0.00005382392555,0.00002694316208,0.00002959743142,0.08041393756866,-0.01040822267532,-0.01595711708069,9.65005779266357,-1.24903655052185,-1.91493046283722,-0.74016165733337,0.37050989270210,0.40701013803482,-1.22460937500000,-0.47265625000000,-0.01123046875000,0
227,418269555,-0.351085,-0.581600,0.508599,-0.528973,1.00000000000000,-0.00005978159606,0.00003735627979,0.00002063158900,0.08062261343002,-0.01066803932190,-0.01596277952194,9.67510032653809,-1.28021585941315,-1.91561007499695,-0.82208883762360,0.51370626688004,0.28371605277061,-1.22753906250000,-0.47216796875000,-0.01025390625000,0
228,418277888,-0.351111,-0.581568,0.508621,-0.528969,1.00000000000000,-0.00006091222167,0.00003824848682,0.00002557691187,0.08045238256454,-0.01069837808609,-0.01608926057816,9.65467166900635,-1.28385674953461,-1.93078839778900,-0.83763682842255,0.52597552537918,0.35172191262245,-1.22705078125000,-0.47265625000000,-0.00781250000000,0
229,418286221,-0.351133,-0.581547,0.508631,-0.528968,1.00000000000000,-0.00004505924881,0.00003604311496,0.00001704972237,0.08044427633286,-0.01074749231339,-0.01590621471405,9.65369892120361,-1.28975057601929,-1.90882194042206,-0.61963391304016,0.49564820528030,0.23445987701416,-1.22314453125000,-0.47167968750000,-0.01025390625000,0
230,418294554,-0.351148,-0.581526,0.508643,-0.528969,1.00000000000000,-0.00004138611257,0.00003375578672,0.00002116803080,0.08047419786453,-0.01064389944077,-0.01583832502365,9.65728950500488,-1.27731871604919,-1.90067493915558,-0.56912261247635,0.46419391036034,0.29109296202660,-1.22656250000000,-0.47363281250000,-0.01220703125000,0
231,418302887,-0.351158,-0.581509,0.508642,-0.528982,1.00000000000000,-0.00002503767610,0.00004010740668,0.00001976359636,0.08033955097198,-0.01036947965622,-0.01578068733215,9.64113140106201,-1.24438726902008,-1.89375805854797,-0.34430652856827,0.55153840780258,0.27177980542183,-1.22705078125000,-0.47167968750000,-0.00683593750000,0
232,418311220,-0.351148,-0.581493,0.508652,-0.528998,1.00000000000000,-0.00001667067409,0.00002753827721,0.00003701541573,0.08031129837036,-0.01027208566666,-0.01574987173080,9.63774013519287,-1.23269951343536,-1.89006006717682,-0.22924737632275,0.37869364023209,0.50901883840561,-1.22607421875000,-0.47167968750000,-0.01269531250000,0
233,418319553,-0.351147,-0.581470,0.508662,-0.529013,1.00000000000000,-0.00002524349838,0.00003470852971,0.00003553740680,0.08036112785339,-0.01057893037796,-0.01579934358597,9.64372062683105,-1.26952195167542,-1.89599668979645,-0.34713691473007,0.47729566693306,0.48869401216507,-1.22363281250000,-0.47265625000000,-0.01171875000000,0
234,418327886,-0.351136,-0.581465,0.508655,-0.529034,1.00000000000000,-0.00000033620745,0.00003060512245,0.00002390332520,0.08034729957581,-0.01077461242676,-0.01603877544403,9.64206123352051,-1.29300510883331,-1.92472994327545,-0.00462336884812,0.42086747288704,0.32870748639107,-1.22656250000000,-0.47070312500000,-0.01220703125000,0
235,418336219,-0.351118,-0.581461,0.508643,-0.529061,1.00000000000000,0.00000984221697,0.00003111548722,0.00002639368176,0.08042305707932,-0.01071155071259,-0.01591438055038,9.65115356445312,-1.28543746471405,-1.90980231761932,0.13534562289715,0.42788577079773,0.36295366287231,-1.22460937500000,-0.47216796875000,-0.00927734375000,0
236,418344552,-0.351121,-0.581452,0.508634,-0.529078,1.00000000000000,-0.00001212209463,0.00003764871508,0.00001592095941,0.08058619499207,-0.01080620288849,-0.01593780517578,9.67072963714600,-1.29679608345032,-1.91261303424835,-0.16669744253159,0.51772773265839,0.21893766522408,-1.22558593750000,-0.47314453125000,-0.01074218750000,0
237,418352885,-0.351112,-0.581445,0.508633,-0.529092,1.00000000000000,-0.00000941939652,0.00002640206367,0.00002497714013,0.08048498630524,-0.01074546575546,-0.01610755920410,9.65858364105225,-1.28950738906860,-1.93298423290253,-0.12953117489815,0.36306896805763,0.34347406029701,-1.22363281250000,-0.46972656250000,-0.01171875000000,0
238,418361218,-0.351111,-0.581431,0.508624,-0.529116,1.00000000000000,-0.00000719167292,0.00004162918776,0.00002244580537,0.08059740066528,-0.01044505834579,-0.01587122678757,9.67207527160645,-1.25345695018768,-1.90462315082550,-0.09889655560255,0.57246536016464,0.30866432189941,-1.22705078125000,-0.47265625000000,-0.01025390625000,0
239,418369551,-0.351104,-0.581421,0.508623,-0.529134,1.00000000000000,-0.00000912137330,0.00003121513873,0.00002718996257,0.08067148923874,-0.01038712263107,-0.01608139276505,9.68096542358398,-1.24650442600250,-1.92984414100647,-0.12543290853500,0.42925614118576,0.37390378117561,-1.22558593750000,-0.47119140625000,-0.00878906250000,0
240,418377884,-0.351086,-0.581412,0.508617,-0.529161,1.00000000000000,0.00000426266342,0.00003209058195,0.00003165286034,0.08050781488419,-0.01042038202286,-0.01590824127197,9.66132354736328,-1.25049579143524,-1.90906512737274,0.05861817300320,0.44129481911659,0.43527543544769,-1.22363281250000,-0.47216796875000,-0.01220703125000,0
241,418386217,-0.351067,-0.581394,0.508624,-0.529187,1.00000000000000,-0.00000590458512,0.00002983864397,0.00004464667290,0.08046662807465,-0.01076102256775,-0.01587975025177,9.65638065338135,-1.29137432575226,-1.90564608573914,-0.08119712024927,0.41032722592354,0.61396044492722,-1.22314453125000,-0.47314453125000,-0.01220703125000,0
242,418394550,-0.351050,-0.581386,0.508625,-0.529206,1.00000000000000,-0.00000376999378,0.00002493802458,0.00003236997873,0.08016049861908,-0.01076650619507,-0.01578032970428,9.61964511871338,-1.29203236103058,-1.89371502399445,-0.05184320732951,0.34293615818024,0.44513690471649,-1.22558593750000,-0.47412109375000,-0.01123046875000,0
243,418402883,-0.351028,-0.581377,0.508615,-0.529240,1.00000000000000,0.00001232326031,0.00003441981971,0.00003502704203,0.08031600713730,-0.01088601350784,-0.01568758487701,9.63830566406250,-1.30637383460999,-1.88258540630341,0.16946378350258,0.47332543134689,0.48167571425438,-1.22216796875000,-0.47314453125000,-0.01074218750000,0
244,418411216,-0.351007,-0.581369,0.508607,-0.529270,1.00000000000000,0.00000940263271,0.00003287382424,0.00003281980753,0.08040261268616,-0.01045048236847,-0.01552569866180,9.64869880676270,-1.25410795211792,-1.86315822601318,0.12930065393448,0.45206567645073,0.45132279396057,-1.22412109375000,-0.47314453125000,-0.00927734375000,0
245,418419549,-0.350996,-0.581360,0.508604,-0.529290,1.00000000000000,-0.00000502727926,0.00003027822822,0.00002753827721,0.08051800727844,-0.01028102636337,-0.01545113325119,9.66254711151123,-1.23377239704132,-1.85421001911163,-0.06913281977177,0.41637217998505,0.37869367003441,-1.22753906250000,-0.46923828125000,-0.00878906250000,0
246,418427882,-0.350990,-0.581352,0.508618,-0.529289,1.00000000000000,-0.00002674758434,0.00001416634768,0.00002708379179,0.08057695627213,-0.01041847467422,-0.01562100648880,9.66962051391602,-1.25026690959930,-1.87459564208984,-0.36782041192055,0.19480906426907,0.37244379520416,-1.22558593750000,-0.47119140625000,-0.00585937500000,0
247,418436215,-0.350993,-0.581339,0.508627,-0.529293,1.00000000000000,-0.00002897717059,0.00002526957542,0.00002442952245,0.08044964075089,-0.01025563478470,-0.01563030481339,9.65434169769287,-1.23072576522827,-1.87571167945862,-0.39848062396049,0.34749549627304,0.33594349026680,-1.22509765625000,-0.47070312500000,-0.01025390625000,0
248,418444548,-0.350983,-0.581323,0.508657,-0.529288,1.00000000000000,-0.00003813393414,0.00000807736069,0.00004082825035,0.08051604032516,-0.01060616970062,-0.01576614379883,9.66231155395508,-1.27279126644135,-1.89201331138611,-0.52440023422241,0.11107612401247,0.56145119667053,-1.22656250000000,-0.47314453125000,-0.01171875000000,0
249,418452881,-0.350951,-0.581328,0.508673,-0.529289,1.00000000000000,-0.00000727176666,-0.00000467710197,0.00003657024354,0.08046156167984,-0.01096922159195,-0.01585495471954,9.65577316284180,-1.31635916233063,-1.90267050266266,-0.09999797493219,-0.06431734561920,0.50289714336395,-1.22460937500000,-0.47412109375000,-0.00830078125000,0
250,418461214,-0.350920,-0.581339,0.508680,-0.529290,1.00000000000000,-0.00000097602606,-0.00000615045428,0.00002775620669,0.08050829172134,-0.01103556156158,-0.01586562395096,9.66138076782227,-1.32432031631470,-1.90395092964172,-0.01342185866088,-0.08457820117474,0.38169050216675,-1.22558593750000,-0.47021484375000,-0.01123046875000,0
251,418469547,-0.350896,-0.581345,0.508682,-0.529299,1.00000000000000,-0.00000059697777,0.00000806897879,0.00002542510629,0.08080095052719,-0.01080816984177,-0.01607024669647,9.69650077819824,-1.29703211784363,-1.92850661277771,-0.00820936262608,0.11096086353064,0.34963428974152,-1.22705078125000,-0.47363281250000,-0.00830078125000,0
252,418477880,-0.350880,-0.581352,0.508678,-0.529305,1.00000000000000,-0.00000247731805,0.00001111533493,0.00001626927406,0.08063328266144,-0.01059854030609,-0.01621335744858,9.67637920379639,-1.27187561988831,-1.94568073749542,-0.03406693041325,0.15285292267799,0.22372752428055,-1.22558593750000,-0.47363281250000,-0.00830078125000,0
253,418486213,-0.350878,-0.581348,0.508684,-0.529306,1.00000000000000,-0.00002288725227,0.00001782365143,0.00001974962652,0.08067452907562,-0.01039445400238,-0.01627129316330,9.68132972717285,-1.24738430976868,-1.95263314247131,-0.31473493576050,0.24510262906551,0.27158775925636,-1.22558593750000,-0.46875000000000,-0.00927734375000,0
254,418494546,-0.350881,-0.581339,0.508699,-0.529298,1.00000000000000,-0.00003677327186,0.00001416541636,0.00002155452967,0.08051788806915,-0.01043945550919,-0.01624369621277,9.66253280639648,-1.25278472900391,-1.94932138919830,-0.50568902492523,0.19479624927044,0.29640790820122,-1.22607421875000,-0.47216796875000,-0.00878906250000,0
255,418502879,-0.350890,-0.581331,0.508706,-0.529295,1.00000000000000,-0.00003339629620,0.00002315081656,0.00001385994256,0.08052474260330,-0.01062214374542,-0.01589453220367,9.66335487365723,-1.27470791339874,-1.90742003917694,-0.45925039052963,0.31835931539536,0.19059550762177,-1.22607421875000,-0.47265625000000,-0.01269531250000,0
256,418511212,-0.350868,-0.581321,0.508712,-0.529314,1.00000000000000,-0.00000379700214,0.00002203695476,0.00003850460052,0.08038449287415,-0.01077836751938,-0.01582711935043,9.64652442932129,-1.29345571994781,-1.89933013916016,-0.05221461877227,0.30304199457169,0.52949744462967,-1.22753906250000,-0.47167968750000,-0.01074218750000,0
257,418519545,-0.350844,-0.581312,0.508709,-0.529342,1.00000000000000,0.00000692065805,0.00002793129534,0.00003814045340,0.08037877082825,-0.01056826114655,-0.01578915119171,9.64583683013916,-1.26824200153351,-1.89477396011353,0.09516969323158,0.38409826159477,0.52448987960815,-1.22216796875000,-0.46875000000000,-0.01269531250000,0
258,418527878,-0.350840,-0.581300,0.508715,-0.529353,1.00000000000000,-0.00001978315413,0.00002639833838,0.00002767797559,0.08036464452744,-0.01058155298233,-0.01581066846848,9.64414215087891,-1.26983702182770,-1.89735591411591,-0.27204877138138,0.36301776766777,0.38061472773552,-1.22656250000000,-0.47070312500000,-0.00878906250000,0
259,418536211,-0.350839,-0.581287,0.508730,-0.529354,1.00000000000000,-0.00003077834845,0.00002066325396,0.00002878997475,0.08039331436157,-0.01038777828217,-0.01553601026535,9.64758300781250,-1.24658322334290,-1.86439561843872,-0.42324960231781,0.28415149450302,0.39590641856194,-1.22607421875000,-0.47216796875000,-0.01123046875000,0
260,418544544,-0.350851,-0.581261,0.508754,-0.529350,1.00000000000000,-0.00005123391747,0.00002707820386,0.00003074761480,0.08042603731155,-0.01047039031982,-0.01581543684006,9.65151023864746,-1.25649702548981,-1.89792823791504,-0.70454519987106,0.37236696481705,0.42282703518867,-1.22460937500000,-0.47216796875000,-0.01025390625000,0
261,418552877,-0.350856,-0.581237,0.508779,-0.529350,1.00000000000000,-0.00004397518933,0.00002536270767,0.00003656093031,0.08038789033890,-0.01054590940475,-0.01593261957169,9.64693164825439,-1.26555955410004,-1.91199040412903,-0.60472643375397,0.34877622127533,0.50276899337769,-1.22265625000000,-0.47363281250000,-0.01123046875000,0
262,418561210,-0.350852,-0.581211,0.508808,-0.529353,1.00000000000000,-0.00004098378122,0.00002149585634,0.00004570093006,0.08030885457993,-0.01094281673431,-0.01606732606888,9.63744735717773,-1.31319046020508,-1.92815613746643,-0.56358999013901,0.29560106992722,0.62845808267593,-1.22412109375000,-0.47314453125000,-0.01318359375000,0
263,418569543,-0.350843,-0.581196,0.508834,-0.529350,1.00000000000000,-0.00003417488188,0.00001056119800,0.00003803521395,0.08040928840637,-0.01092290878296,-0.01594811677933,9.64949989318848,-1.31080138683319,-1.91385006904602,-0.46995714306831,0.14523270726204,0.52304267883301,-1.22705078125000,-0.47216796875000,-0.01074218750000,0
264,418577876,-0.350834,-0.581187,0.508847,-0.529354,1.00000000000000,-0.00002362206578,0.00001584459096,0.00003028009087,0.08056664466858,-0.01083242893219,-0.01598697900772,9.66838359832764,-1.29994332790375,-1.91851413249969,-0.32483974099159,0.21788750588894,0.41639783978462,-1.22460937500000,-0.46923828125000,-0.01269531250000,0
265,418586209,-0.350824,-0.581175,0.508858,-0.529364,1.00000000000000,-0.00001830421388,0.00002160388976,0.00003414321691,0.08071553707123,-0.01074272394180,-0.01584118604660,9.68625164031982,-1.28917837142944,-1.90101826190948,-0.25171107053757,0.29708671569824,0.46952173113823,-1.22509765625000,-0.47216796875000,-0.01269531250000,0
266,418594542,-0.350813,-0.581161,0.508872,-0.529372,1.00000000000000,-0.00002194941044,0.00002043414861,0.00003550667316,0.08057922124863,-0.01074951887131,-0.01572799682617,9.66989231109619,-1.28999376296997,-1.88743495941162,-0.30183812975883,0.28100094199181,0.48827132582664,-1.22802734375000,-0.46875000000000,-0.01123046875000,0
267,418602875,-0.350798,-0.581153,0.508886,-0.529378,1.00000000000000,-0.00001849420369,0.00001302640885,0.00003480445594,0.08051043748856,-0.01092195510864,-0.01573252677917,9.66163825988770,-1.31068694591522,-1.88797855377197,-0.25432372093201,0.17913314700127,0.47861477732658,-1.22607421875000,-0.46875000000000,-0.00927734375000,0
268,418611208,-0.350782,-0.581147,0.508897,-0.529385,1.00000000000000,-0.00001457519829,0.00001410674304,0.00003220792860,0.08016979694366,-0.01068490743637,-0.01562809944153,9.62076091766357,-1.28224015235901,-1.87544655799866,-0.20043140649796,0.19398941099644,0.44290858507156,-1.22705078125000,-0.47119140625000,-0.01025390625000,0
269,418619541,-0.350771,-0.581146,0.508904,-0.529387,1.00000000000000,-0.00001636892557,0.00001106690615,0.00002399366349,0.08014506101608,-0.01067906618118,-0.01566910743713,9.61779022216797,-1.28153920173645,-1.88036847114563,-0.22509787976742,0.15218697488308,0.32994976639748,-1.22705078125000,-0.47314453125000,-0.01220703125000,0
270,418627874,-0.350763,-0.581132,0.508915,-0.529397,1.00000000000000,-0.00002100691199,0.00002360437065,0.00003232900053,0.08039200305939,-0.01047903299332,-0.01580244302750,9.64742565155029,-1.25753414630890,-1.89636886119843,-0.28887733817101,0.32459640502930,0.44457343220711,-1.22558593750000,-0.47265625000000,-0.01171875000000,0
271,418636207,-0.350747,-0.581125,0.508924,-0.529405,1.00000000000000,-0.00001365412027,0.00001542828977,0.00003251619637,0.08050936460495,-0.01056617498398,-0.01592993736267,9.66150856018066,-1.26799154281616,-1.91166901588440,-0.18776515126228,0.21216270327568,0.44714766740799,-1.22607421875000,-0.47119140625000,-0.00830078125000,0
272,418644540,-0.350729,-0.581114,0.508939,-0.529416,1.00000000000000,-0.00001511629671,0.00001572072506,0.00003957562149,0.08048331737518,-0.01079344749451,-0.01590830087662,9.65838336944580,-1.29526543617249,-1.90907227993011,-0.20787233114243,0.21618413925171,0.54422563314438,-1.22509765625000,-0.47216796875000,-0.01367187500000,0
273,418652873,-0.350707,-0.581102,0.508961,-0.529422,1.00000000000000,-0.00002034474164,0.00000957585871,0.00004521198571,0.08032816648483,-0.01115804910660,-0.01597642898560,9.63976478576660,-1.33901929855347,-1.91724801063538,-0.27977144718170,0.13168278336525,0.62173432111740,-1.22558593750000,-0.46728515625000,-0.01025390625000,0
274,418661206,-0.350677,-0.581103,0.508969,-0.529433,1.00000000000000,-0.00000030174851,0.00000604335219,0.00003578606993,0.08050656318665,-0.01124238967896,-0.01619458198547,9.66117191314697,-1.34914040565491,-1.94342744350433,-0.00414950633422,0.08310539275408,0.49211353063583,-1.22412109375000,-0.46826171875000,-0.01123046875000,0
275,418669539,-0.350655,-0.581105,0.508971,-0.529444,1.00000000000000,-0.00000219978392,0.00001175422221,0.00002786237746,0.08076786994934,-0.01104784011841,-0.01592540740967,9.69252967834473,-1.32579374313354,-1.91112530231476,-0.03025041520596,0.16163863241673,0.38315051794052,-1.22753906250000,-0.47021484375000,-0.00781250000000,0
276,418677872,-0.350643,-0.581102,0.508981,-0.529445,1.00000000000000,-0.00001917593181,0.00001064594835,0.00002615433186,0.08079540729523,-0.01054787635803,-0.01573348045349,9.69583606719971,-1.26579558849335,-1.88809275627136,-0.26369854807854,0.14639817178249,0.35966232419014,-1.22656250000000,-0.47119140625000,-0.00781250000000,0
277,418686205,-0.350638,-0.581090,0.508997,-0.529447,1.00000000000000,-0.00002810917795,0.00001753028482,0.00003204587847,0.08057159185410,-0.01024049520493,-0.01565754413605,9.66897678375244,-1.22890853881836,-1.87898027896881,-0.38654440641403,0.24106834828854,0.44068008661270,-1.22363281250000,-0.46972656250000,-0.01220703125000,0
278,418694538,-0.350626,-0.581087,0.509016,-0.529440,1.00000000000000,-0.00002722442150,0.00000303518027,0.00002754572779,0.08039087057114,-0.01058703660965,-0.01585876941681,9.64728927612305,-1.27049517631531,-1.90312826633453,-0.37437763810158,0.04173839464784,0.37879607081413,-1.22509765625000,-0.47167968750000,-0.01123046875000,0
279,418702871,-0.350620,-0.581078,0.509041,-0.529430,1.00000000000000,-0.00003821030259,0.00000561680645,0.00003155600280,0.08026164770126,-0.01070243120193,-0.01581293344498,9.63178253173828,-1.28434300422668,-1.89762783050537,-0.52545046806335,0.07723972946405,0.43394359946251,-1.22753906250000,-0.47119140625000,-0.01220703125000,0
280,418711204,-0.350594,-0.581077,0.509058,-0.529432,1.00000000000000,-0.00001268461347,0.00000040140003,0.00003624614328,0.08031183481216,-0.01106822490692,-0.01595848798752,9.63780498504639,-1.32824003696442,-1.91509497165680,-0.17443293333054,0.00551986740902,0.49844020605087,-1.22656250000000,-0.47070312500000,-0.01220703125000,0
281,418719537,-0.350555,-0.581093,0.509052,-0.529445,1.00000000000000,0.00001818593591,-0.00000039860606,0.00002609658986,0.08031290769577,-0.01085406541824,-0.01591080427170,9.63793277740479,-1.30253970623016,-1.90937221050262,0.25008460879326,-0.00548144616187,0.35886824131012,-1.22753906250000,-0.46777343750000,-0.00781250000000,0
282,418727870,-0.350523,-0.581105,0.509055,-0.529450,1.00000000000000,0.00000350736082,-0.00000195298344,0.00002657435834,0.08056676387787,-0.01065212488174,-0.01603204011917,9.66839790344238,-1.27830600738525,-1.92392158508301,0.04823160544038,-0.02685652673244,0.36543831229210,-1.22656250000000,-0.47216796875000,-0.01123046875000,0
283,418736203,-0.350518,-0.581107,0.509072,-0.529435,1.00000000000000,-0.00003219582140,-0.00000013597310,0.00001849886030,0.08069837093353,-0.01060020923615,-0.01583379507065,9.68419075012207,-1.27207601070404,-1.90013086795807,-0.44274207949638,-0.00186983938329,0.25438779592514,-1.22851562500000,-0.47119140625000,-0.01220703125000,0
284,418744536,-0.350505,-0.581099,0.509091,-0.529434,1.00000000000000,-0.00002556294203,0.00000863242894,0.00003323797137,0.08060967922211,-0.01056027412415,-0.01583319902420,9.67354869842529,-1.26728355884552,-1.90005922317505,-0.35152974724770,0.11870916932821,0.45707321166992,-1.22607421875000,-0.46923828125000,-0.00976562500000,0
285,418752869,-0.350489,-0.581094,0.509108,-0.529434,1.00000000000000,-0.00002175755799,0.00000725779682,0.00003317464143,0.08050501346588,-0.01069062948227,-0.01600986719131,9.66098690032959,-1.28292679786682,-1.92126071453094,-0.29919984936714,0.09980587661266,0.45620238780975,-1.22851562500000,-0.47070312500000,-0.01513671875000,0
286,418761202,-0.350471,-0.581086,0.509130,-0.529434,1.00000000000000,-0.00002442114055,0.00000492762774,0.00003878679127,0.08043587207794,-0.01083832979202,-0.01588070392609,9.65268993377686,-1.30065155029297,-1.90576052665710,-0.33582821488380,0.06776245683432,0.53337800502777,-1.22851562500000,-0.47070312500000,-0.00976562500000,0
287,418769535,-0.350451,-0.581083,0.509143,-0.529439,1.00000000000000,-0.00001296959817,0.00000781659037,0.00003373716027,0.08027637004852,-0.01085317134857,-0.01616603136063,9.63354873657227,-1.30243253707886,-1.94000124931335,-0.17835190892220,0.10749012976885,0.46393781900406,-1.22802734375000,-0.46923828125000,-0.01123046875000,0
288,418777868,-0.350423,-0.581073,0.509156,-0.529455,1.00000000000000,-0.00000598374754,0.00001449137926,0.00004462525249,0.08036470413208,-0.01075452566147,-0.01597326993942,9.64414978027344,-1.29059457778931,-1.91686892509460,-0.08228572458029,0.19927874207497,0.61366581916809,-1.22851562500000,-0.47070312500000,-0.01074218750000,0
289,418786201,-0.350400,-0.581069,0.509166,-0.529465,1.00000000000000,-0.00000778771937,0.00001106131822,0.00003654230386,0.08020889759064,-0.01092320680618,-0.01593315601349,9.62545204162598,-1.31083714962006,-1.91205501556396,-0.10709311068058,0.15211012959480,0.50251287221909,-1.22851562500000,-0.47021484375000,-0.01171875000000,0
290,418794534,-0.350371,-0.581066,0.509169,-0.529484,1.00000000000000,0.00000371690840,0.00001520011574,0.00003684218973,0.08050483465195,-0.01077139377594,-0.01611614227295,9.66096496582031,-1.29261875152588,-1.93401432037354,0.05111320689321,0.20902496576309,0.50663673877716,-1.22656250000000,-0.47265625000000,-0.00976562500000,0
291,418802867,-0.350348,-0.581065,0.509165,-0.529505,1.00000000000000,0.00000625196844,0.00002012494951,0.00002948846668,0.08034259080887,-0.01079690456390,-0.01589578390121,9.64149570465088,-1.29568028450012,-1.90757024288177,0.08597417175770,0.27674895524979,0.40551173686981,-1.22558593750000,-0.46875000000000,-0.00830078125000,0
292,418811200,-0.350337,-0.581053,0.509172,-0.529517,1.00000000000000,-0.00001547299325,0.00002420227975,0.00003249291331,0.08049178123474,-0.01096755266190,-0.01601880788803,9.65939903259277,-1.31615889072418,-1.92233371734619,-0.21277745068073,0.33281856775284,0.44682750105858,-1.22460937500000,-0.46972656250000,-0.00830078125000,0
293,418819533,-0.350331,-0.581041,0.509183,-0.529525,1.00000000000000,-0.00002184696496,0.00002190005034,0.00003092084080,0.08041942119598,-0.01108092069626,-0.01600080728531,9.65071678161621,-1.32976341247559,-1.92017316818237,-0.30042934417725,0.30115935206413,0.42520907521248,-1.22509765625000,-0.47021484375000,-0.01074218750000,0
294,418827866,-0.350307,-0.581035,0.509184,-0.529546,1.00000000000000,0.00000183284283,0.00002168118954,0.00003571622074,0.08032983541489,-0.01089936494827,-0.01587337255478,9.63996505737305,-1.30797600746155,-1.90488076210022,0.02520440518856,0.29814967513084,0.49115294218063,-1.22656250000000,-0.46777343750000,-0.01171875000000,0
295,418836199,-0.350275,-0.581037,0.509175,-0.529573,1.00000000000000,0.00001845229417,0.00001899432391,0.00003270898014,0.08050966262817,-0.01095110177994,-0.01597315073013,9.66154479980469,-1.31418466567993,-1.91685461997986,0.25374740362167,0.26120114326477,0.44979876279831,-1.22509765625000,-0.47167968750000,-0.00878906250000,0
296,418844532,-0.350249,-0.581045,0.509161,-0.529595,1.00000000000000,0.00001561734825,0.00001833308488,0.00002046581358,0.08055400848389,-0.01074105501175,-0.01597946882248,9.66686725616455,-1.28897809982300,-1.91761279106140,0.21476255357265,0.25210809707642,0.28143641352654,-1.22851562500000,-0.47070312500000,-0.01074218750000,0
297,418852865,-0.350222,-0.581047,0.509158,-0.529613,1.00000000000000,0.00000760611147,0.00001518521458,0.00003079418093,0.08049178123474,-0.01059842109680,-0.01578491926193,9.65939903259277,-1.27186131477356,-1.89426589012146,0.10459572076797,0.20882004499435,0.42346733808517,-1.22119140625000,-0.46826171875000,-0.01123046875000,0
298,418861198,-0.350206,-0.581044,0.509158,-0.529628,1.00000000000000,-0.00000401213765,0.00002039875835,0.00002672057599,0.08045727014542,-0.01056778430939,-0.01586228609085,9.65525722503662,-1.26818478107452,-1.90355062484741,-0.05517306178808,0.28051427006721,0.36744898557663,-1.22607421875000,-0.46875000000000,-0.00927734375000,0
299,418869531,-0.350191,-0.581032,0.509167,-0.529643,1.00000000000000,-0.00001255795360,0.00002258922905,0.00003721471876,0.08037227392197,-0.01080679893494,-0.01585793495178,9.64505767822266,-1.29686760902405,-1.90302813053131,-0.17269116640091,0.31063663959503,0.51175963878632,-1.22753906250000,-0.47167968750000,-0.01513671875000,0
300,418877864,-0.350187,-0.581016,0.509178,-0.529652,1.00000000000000,-0.00002359412611,0.00002621579915,0.00003284309059,0.08012348413467,-0.01087492704391,-0.01586353778839,9.61520195007324,-1.30504333972931,-1.90370059013367,-0.32445552945137,0.36050754785538,0.45164301991463,-1.22607421875000,-0.46972656250000,-0.00830078125000,0
301,418886197,-0.350175,-0.580999,0.509190,-0.529668,1.00000000000000,-0.00001709908247,0.00002607237548,0.00003876443952,0.08023595809937,-0.01099091768265,-0.01571327447891,9.62869930267334,-1.31896281242371,-1.88566827774048,-0.23513868451118,0.35853523015976,0.53307062387466,-1.22851562500000,-0.47119140625000,-0.00976562500000,0
302,418894530,-0.350177,-0.580986,0.509204,-0.529666,1.00000000000000,-0.00003454089165,0.00002065859735,0.00002487003803,0.08025205135345,-0.01095682382584,-0.01612061262131,9.63063049316406,-1.31487131118774,-1.93455076217651,-0.47499036788940,0.28408744931221,0.34200125932693,-1.22265625000000,-0.47070312500000,-0.00927734375000,0
303,418902863,-0.350183,-0.580964,0.509224,-0.529668,1.00000000000000,-0.00003996770829,0.00002651289105,0.00003303587437,0.08047550916672,-0.01085293292999,-0.01583975553513,9.65744686126709,-1.30240404605865,-1.90084671974182,-0.54961740970612,0.36459302902222,0.45429402589798,-1.22558593750000,-0.46728515625000,-0.01220703125000,0
304,418911196,-0.350188,-0.580939,0.509248,-0.529668,1.00000000000000,-0.00004475004971,0.00002558063716,0.00003551039845,0.08045291900635,-0.01074784994125,-0.01588827371597,9.65473556518555,-1.28979349136353,-1.90666902065277,-0.61538195610046,0.35177308320999,0.48832255601883,-1.22705078125000,-0.47216796875000,-0.01171875000000,0
305,418919529,-0.350196,-0.580909,0.509281,-0.529665,1.00000000000000,-0.00005359761417,0.00002481136471,0.00004148017615,0.08050543069839,-0.01066321134567,-0.01611518859863,9.66103744506836,-1.27963638305664,-1.93389952182770,-0.73704963922501,0.34119445085526,0.57041621208191,-1.22363281250000,-0.46630859375000,-0.00927734375000,0
306,418927862,-0.350207,-0.580876,0.509311,-0.529665,1.00000000000000,-0.00005350075662,0.00003142002970,0.00004058983177,0.08036434650421,-0.01083630323410,-0.01593828201294,9.64410686492920,-1.30040836334229,-1.91267025470734,-0.73571759462357,0.43207371234894,0.55817258358002,-1.22509765625000,-0.46923828125000,-0.01025390625000,0
307,418936195,-0.350221,-0.580835,0.509342,-0.529671,1.00000000000000,-0.00005605071783,0.00003900844604,0.00004621688277,0.08020579814911,-0.01088488101959,-0.01597934961319,9.62508010864258,-1.30623781681061,-1.91759848594666,-0.77078354358673,0.53642606735229,0.63555324077606,-1.22607421875000,-0.46826171875000,-0.00830078125000,0
308,418944528,-0.350230,-0.580799,0.509376,-0.529672,1.00000000000000,-0.00005465187132,0.00003060232848,0.00004481244832,0.08029842376709,-0.01111835241318,-0.01596462726593,9.63619518280029,-1.33425557613373,-1.91583180427551,-0.75154715776443,0.42082905769348,0.61624008417130,-1.22558593750000,-0.46679687500000,-0.01074218750000,0
309,418952861,-0.350253,-0.580761,0.509410,-0.529665,1.00000000000000,-0.00006830692291,0.00003421772271,0.00003784429282,0.08049929141998,-0.01108378171921,-0.01597344875336,9.66030025482178,-1.33010685443878,-1.91689038276672,-0.93932509422302,0.47054624557495,0.52041715383530,-1.22558593750000,-0.46728515625000,-0.01318359375000,0
310,418961194,-0.350286,-0.580716,0.509450,-0.529653,1.00000000000000,-0.00008264277130,0.00003800913692,0.00003556348383,0.08033627271652,-0.01106351613998,-0.01581603288651,9.64073753356934,-1.32767522335052,-1.89800000190735,-1.13646531105042,0.52268415689468,0.48905259370804,-1.22460937500000,-0.46923828125000,-0.00878906250000,0
311,418969527,-0.350326,-0.580662,0.509491,-0.529647,1.00000000000000,-0.00008699391037,0.00004894658923,0.00004032067955,0.08032166957855,-0.01087075471878,-0.01581931114197,9.63898563385010,-1.30454266071320,-1.89839315414429,-1.19630002975464,0.67309087514877,0.55447137355804,-1.22509765625000,-0.46875000000000,-0.01171875000000,0
312,418977860,-0.350387,-0.580604,0.509542,-0.529621,1.00000000000000,-0.00011529400945,0.00004710908979,0.00002968404442,0.08003234863281,-0.01094204187393,-0.01594126224518,9.60435867309570,-1.31321489810944,-1.91248071193695,-1.58546984195709,0.64782238006592,0.40820124745369,-1.22753906250000,-0.46875000000000,-0.01074218750000,0
313,418986193,-0.350455,-0.580548,0.509599,-0.529583,1.00000000000000,-0.00012850947678,0.00004134792835,0.00002495106310,0.08011871576309,-0.01088088750839,-0.01590979099274,9.61470317840576,-1.30575013160706,-1.90888774394989,-1.76720285415649,0.56859755516052,0.34311547875404,-1.22558593750000,-0.46728515625000,-0.01123046875000,0
314,418994526,-0.350530,-0.580479,0.509675,-0.529536,1.00000000000000,-0.00015173107386,0.00003915000707,0.00003430340439,0.08037722110748,-0.01091325283051,-0.01600140333176,9.64568614959717,-1.30968844890594,-1.92003786563873,-2.08653545379639,0.53837281465530,0.47172456979752,-1.22900390625000,-0.46923828125000,-0.01074218750000,0
315,419002859,-0.350602,-0.580414,0.509743,-0.529494,1.00000000000000,-0.00014228187501,0.00004048179835,0.00003222841769,0.08069294691086,-0.01077693700790,-0.01606225967407,9.68358707427979,-1.29333341121674,-1.92727780342102,-1.95659458637238,0.55668693780899,0.44319027662277,-1.22607421875000,-0.46533203125000,-0.01074218750000,0
316,419011192,-0.350667,-0.580358,0.509804,-0.529454,1.00000000000000,-0.00012944079936,0.00003654230386,0.00002750661224,0.08048057556152,-0.01071536540985,-0.01583522558212,9.65810775756836,-1.28592634201050,-1.90000796318054,-1.78000998497009,0.50251287221909,0.37825819849968,-1.22753906250000,-0.46972656250000,-0.01025390625000,0
317,419019525,-0.350728,-0.580302,0.509862,-0.529418,1.00000000000000,-0.00012358557433,0.00003763847053,0.00003014504910,0.08075118064880,-0.01118499040604,-0.01583844423294,9.69058132171631,-1.34234952926636,-1.90035259723663,-1.69949162006378,0.51758676767349,0.41454076766968,-1.22412109375000,-0.46875000000000,-0.01220703125000,0
318,419027858,-0.350775,-0.580253,0.509909,-0.529395,1.00000000000000,-0.00010173767805,0.00003879051656,0.00003096926957,0.08036339282990,-0.01099711656570,-0.01586991548538,9.64399242401123,-1.31970667839050,-1.90446591377258,-1.39904940128326,0.53342926502228,0.42587506771088,-1.22802734375000,-0.46875000000000,-0.01123046875000,0
319,419036191,-0.350806,-0.580216,0.509942,-0.529385,1.00000000000000,-0.00007272697985,0.00003567431122,0.00002996530384,0.08036583662033,-0.01101112365723,-0.01568579673767,9.64428520202637,-1.32138776779175,-1.88237071037292,-1.00010776519775,0.49057662487030,0.41206902265549,-1.22363281250000,-0.46630859375000,-0.01269531250000,0
320,419044524,-0.350826,-0.580187,0.509961,-0.529385,1.00000000000000,-0.00005233846605,0.00003792438656,0.00002753641456,0.08035105466843,-0.01114904880524,-0.01574510335922,9.64251136779785,-1.33793926239014,-1.88948786258698,-0.71973443031311,0.52151864767075,0.37866804003716,-1.22705078125000,-0.46630859375000,-0.01123046875000,0
321,419052857,-0.350841,-0.580165,0.509976,-0.529384,1.00000000000000,-0.00004393327981,0.00003166683018,0.00002415664494,0.08040755987167,-0.01104551553726,-0.01594024896622,9.64929199218750,-1.32551479339600,-1.91290628910065,-0.60415011644363,0.43546766042709,0.33219102025032,-1.22998046875000,-0.46875000000000,-0.01123046875000,0
322,419061190,-0.350857,-0.580149,0.509984,-0.529384,1.00000000000000,-0.00003922637552,0.00003205426037,0.00001578591764,0.08053308725357,-0.01088517904282,-0.01593905687332,9.66435623168945,-1.30627357959747,-1.91276323795319,-0.53942292928696,0.44079536199570,0.21708063781261,-1.22998046875000,-0.46826171875000,-0.01269531250000,0
323,419069523,-0.350860,-0.580134,0.509990,-0.529392,1.00000000000000,-0.00002580042928,0.00003042630851,0.00002498738468,0.08055937290192,-0.01100295782089,-0.01598954200745,9.66751098632812,-1.32040762901306,-1.91882169246674,-0.35479554533958,0.41840851306915,0.34361496567726,-1.22753906250000,-0.46728515625000,-0.00976562500000,0
324,419077856,-0.350866,-0.580126,0.509976,-0.529410,1.00000000000000,-0.00001009739935,0.00003991182894,0.00001085456461,0.08041024208069,-0.01092386245728,-0.01589018106461,9.64961338043213,-1.31091606616974,-1.90689778327942,-0.13885475695133,0.54884904623032,0.14926694333553,-1.22412109375000,-0.46777343750000,-0.01171875000000,0
325,419086189,-0.350857,-0.580116,0.509963,-0.529440,1.00000000000000,0.00000405963510,0.00004103127867,0.00002512987703,0.08063846826553,-0.01074624061584,-0.01594632863998,9.67700290679932,-1.28960037231445,-1.91363584995270,0.05582621693611,0.56424307823181,0.34557443857193,-1.22656250000000,-0.46923828125000,-0.00830078125000,0
326,419094522,-0.350849,-0.580107,0.509945,-0.529472,1.00000000000000,0.00000727456063,0.00004385132343,0.00002156104892,0.08044695854187,-0.01063668727875,-0.01600748300552,9.65402030944824,-1.27645349502563,-1.92097461223602,0.10003639757633,0.60302317142487,0.29649758338928,-1.22656250000000,-0.46582031250000,-0.01269531250000,0
327,419102855,-0.350852,-0.580096,0.509938,-0.529488,1.00000000000000,-0.00001306645572,0.00003757607192,0.00001782085747,0.08032917976379,-0.01082128286362,-0.01585382223129,9.63988685607910,-1.29860579967499,-1.90253460407257,-0.17968384921551,0.51672875881195,0.24506416916847,-1.22558593750000,-0.46923828125000,-0.01123046875000,0
328,419111188,-0.350848,-0.580075,0.509940,-0.529513,1.00000000000000,-0.00001316517591,0.00004083011299,0.00003481376916,0.08025670051575,-0.01097756624222,-0.01583987474442,9.63118839263916,-1.31736087799072,-1.90086114406586,-0.18104141950607,0.56147688627243,0.47874289751053,-1.22705078125000,-0.46630859375000,-0.01220703125000,0
329,419119521,-0.350827,-0.580072,0.509922,-0.529547,1.00000000000000,0.00001772772521,0.00003516208380,0.00002639088780,0.08017212152481,-0.01133066415787,-0.01591104269028,9.62103843688965,-1.35973393917084,-1.90940129756927,0.24378345906734,0.48353272676468,0.36291527748108,-1.22607421875000,-0.46728515625000,-0.01269531250000,0
330,419127854,-0.350820,-0.580072,0.509902,-0.529571,1.00000000000000,0.00000714790076,0.00003575999290,0.00001261848956,0.08022946119308,-0.01121139526367,-0.01587897539139,9.62792110443115,-1.34542131423950,-1.90555334091187,0.09829463064671,0.49175488948822,0.17352361977100,-1.22607421875000,-0.46826171875000,-0.01074218750000,0
331,419136187,-0.350808,-0.580073,0.509886,-0.529593,1.00000000000000,0.00000734161586,0.00003058556467,0.00001704599708,0.08029860258102,-0.01094079017639,-0.01576697826385,9.63621711730957,-1.31294727325439,-1.89211297035217,0.10095850378275,0.42059850692749,0.23440864682198,-1.22656250000000,-0.46875000000000,-0.01123046875000,0
332,419144520,-0.350802,-0.580073,0.509867,-0.529616,1.00000000000000,0.00000562984496,0.00003508944064,0.00001124013215,0.08032196760178,-0.01096618175507,-0.01603513956070,9.63902187347412,-1.31599450111389,-1.92429387569427,0.07741902023554,0.48253375291824,0.15456908941269,-1.22509765625000,-0.46875000000000,-0.01220703125000,0
333,419152853,-0.350800,-0.580063,0.509858,-0.529637,1.00000000000000,-0.00000625476241,0.00003739353269,0.00002108793706,0.08053797483444,-0.01091152429581,-0.01576894521713,9.66494274139404,-1.30943524837494,-1.89234900474548,-0.08601260185242,0.51421850919724,0.28999155759811,-1.22509765625000,-0.47070312500000,-0.01220703125000,0
334,419161186,-0.350798,-0.580051,0.509850,-0.529659,1.00000000000000,-0.00000798702240,0.00004025641829,0.00002241227776,0.08050811290741,-0.01114767789841,-0.01586407423019,9.66135787963867,-1.33777499198914,-1.90376484394073,-0.10983384400606,0.55358767509460,0.30820330977440,-1.22705078125000,-0.46630859375000,-0.01123046875000,0
335,419169519,-0.350795,-0.580043,0.509837,-0.529682,1.00000000000000,-0.00000230409205,0.00003788713366,0.00001821201295,0.08071070909500,-0.01110368967056,-0.01589000225067,9.68567276000977,-1.33249580860138,-1.90687656402588,-0.03168480843306,0.52100628614426,0.25044316053391,-1.22607421875000,-0.46777343750000,-0.00976562500000,0
336,419177852,-0.350782,-0.580043,0.509823,-0.529705,1.00000000000000,0.00000714324415,0.00002991221845,0.00001854822040,0.08057236671448,-0.01110345125198,-0.01593416929245,9.66907024383545,-1.33246731758118,-1.91217660903931,0.09823060035706,0.41133901476860,0.25506657361984,-1.22412109375000,-0.46826171875000,-0.01074218750000,0
337,419186185,-0.350777,-0.580028,0.509807,-0.529739,1.00000000000000,0.00000367965549,0.00004924181849,0.00002612266690,0.08037668466568,-0.01120370626450,-0.01586949825287,9.64558696746826,-1.34449839591980,-1.90441584587097,0.05060091614723,0.67715066671371,0.35922682285309,-1.22509765625000,-0.46728515625000,-0.01269531250000,0
338,419194518,-0.350763,-0.580019,0.509796,-0.529770,1.00000000000000,0.00000693555921,0.00003783125430,0.00002798531204,0.08041960000992,-0.01080238819122,-0.01554441452026,9.65073776245117,-1.29633831977844,-1.86540424823761,0.09537459909916,0.52023792266846,0.38484105467796,-1.22607421875000,-0.46630859375000,-0.01220703125000,0
339,419202851,-0.350756,-0.580013,0.509777,-0.529799,1.00000000000000,0.00000666920096,0.00004078540951,0.00001837592572,0.08032566308975,-0.01048493385315,-0.01576596498489,9.63946437835693,-1.25824224948883,-1.89199137687683,0.09171177446842,0.56086206436157,0.25269725918770,-1.22656250000000,-0.47119140625000,-0.01562500000000,0
340,419211184,-0.350772,-0.580000,0.509771,-0.529809,1.00000000000000,-0.00002563279122,0.00004176050425,0.00000976212323,0.08022862672806,-0.01060706377029,-0.01565802097321,9.62782001495361,-1.27289843559265,-1.87903749942780,-0.35249024629593,0.57427108287811,0.13424418866634,-1.22656250000000,-0.46875000000000,-0.01611328125000,0
341,419219517,-0.350808,-0.579978,0.509774,-0.529806,1.00000000000000,-0.00005169305950,0.00004515610635,0.00000513345003,0.08029854297638,-0.01051008701324,-0.01578527688980,9.63621044158936,-1.26126110553741,-1.89430868625641,-0.71085911989212,0.62096589803696,0.07059284299612,-1.22851562500000,-0.46923828125000,-0.01367187500000,0
342,419227850,-0.350837,-0.579949,0.509794,-0.529799,1.00000000000000,-0.00006073992699,0.00003786198795,0.00002097710967,0.08039426803589,-0.01076596975327,-0.01574587821960,9.64769744873047,-1.29196774959564,-1.88958084583282,-0.83526736497879,0.52066051959991,0.28846752643585,-1.22705078125000,-0.46728515625000,-0.00976562500000,0
343,419236183,-0.350866,-0.579915,0.509813,-0.529798,1.00000000000000,-0.00005943328142,0.00004386994988,0.00002495665103,0.08038240671158,-0.01102089881897,-0.01572239398956,9.64627361297607,-1.32256066799164,-1.88676261901855,-0.81729900836945,0.60327923297882,0.34319230914116,-1.22705078125000,-0.46777343750000,-0.01318359375000,0
344,419244516,-0.350916,-0.579871,0.509846,-0.529781,1.00000000000000,-0.00009036809206,0.00004460196942,0.00002072285861,0.08067059516907,-0.01116174459457,-0.01574671268463,9.68085765838623,-1.33946287631989,-1.88968098163605,-1.24270021915436,0.61334568262100,0.28497114777565,-1.22509765625000,-0.46923828125000,-0.01171875000000,0
345,419252849,-0.350986,-0.579821,0.509886,-0.529751,1.00000000000000,-0.00011461041868,0.00004968699068,0.00001406949013,0.08083939552307,-0.01104086637497,-0.01582753658295,9.70125770568848,-1.32480394840240,-1.89875757694244,-1.57606947422028,0.68327248096466,0.19347712397575,-1.22900390625000,-0.47070312500000,-0.00830078125000,0
346,419261182,-0.351064,-0.579772,0.509925,-0.529716,1.00000000000000,-0.00012020766735,0.00004945602268,0.00000530574471,0.08046245574951,-0.01100260019302,-0.01578789949417,9.65603256225586,-1.32005429267883,-1.89406204223633,-1.65304040908813,0.68009644746780,0.07296215742826,-1.22558593750000,-0.46923828125000,-0.01757812500000,0
347,419269515,-0.351143,-0.579721,0.509964,-0.529682,1.00000000000000,-0.00012238696218,0.00005258154124,0.00000721681863,0.08025312423706,-0.01118659973145,-0.01578110456467,9.63090991973877,-1.34217405319214,-1.89323520660400,-1.68300890922546,0.72307699918747,0.09924235194921,-1.22363281250000,-0.46728515625000,-0.01220703125000,0
348,419277848,-0.351212,-0.579675,0.509993,-0.529658,1.00000000000000,-0.00010342337191,0.00005417037755,0.00000727828592,0.08011090755463,-0.01126438379288,-0.01573079824448,9.61369228363037,-1.35178005695343,-1.88777112960815,-1.42223048210144,0.74492597579956,0.10008762031794,-1.22607421875000,-0.46777343750000,-0.01074218750000,0
349,419286181,-0.351252,-0.579647,0.510008,-0.529648,1.00000000000000,-0.00006539188325,0.00004193279892,0.00001063849777,0.08029067516327,-0.01115864515305,-0.01579350233078,9.63526535034180,-1.33909070491791,-1.89529609680176,-0.89923894405365,0.57664042711258,0.14629569649696,-1.22509765625000,-0.46679687500000,-0.01074218750000,0
350,419294514,-0.351269,-0.579634,0.510012,-0.529648,1.00000000000000,-0.00003643706441,0.00003224890679,0.00001205038279,0.08032172918320,-0.01097089052200,-0.01569253206253,9.63899230957031,-1.31655943393707,-1.88317906856537,-0.50106567144394,0.44347205758095,0.16571128368378,-1.22705078125000,-0.47167968750000,-0.01074218750000,0
351,419302847,-0.351274,-0.579636,0.510005,-0.529648,1.00000000000000,-0.00001834519207,0.00002209190279,0.00000446010381,0.08055311441422,-0.01117932796478,-0.01549243927002,9.66675949096680,-1.34157288074493,-1.85916697978973,-0.25227457284927,0.30379757285118,0.06133328005672,-1.22656250000000,-0.46728515625000,-0.01416015625000,0
352,419311180,-0.351273,-0.579637,0.509993,-0.529660,1.00000000000000,-0.00000708550215,0.00002840254456,0.00000924151391,0.08065932989120,-0.01090806722641,-0.01573985815048,9.67950439453125,-1.30902051925659,-1.88885831832886,-0.09743653982878,0.39057862758636,0.12708501517773,-1.22363281250000,-0.46777343750000,-0.01611328125000,0
353,419319513,-0.351281,-0.579634,0.509976,-0.529674,1.00000000000000,-0.00000861287117,0.00003832485527,0.00000448990613,0.08081847429276,-0.01033240556717,-0.01561319828033,9.69860458374023,-1.23993813991547,-1.87365865707397,-0.11844021826982,0.52702569961548,0.06174311041832,-1.22509765625000,-0.46826171875000,-0.01074218750000,0
354,419327846,-0.351302,-0.579625,0.509971,-0.529674,1.00000000000000,-0.00003279000521,0.00003560353070,0.00000205542892,0.08054465055466,-0.01036131381989,-0.01559418439865,9.66574382781982,-1.24340701103210,-1.87137699127197,-0.45091304183006,0.48960334062576,0.02826531045139,-1.22558593750000,-0.46728515625000,-0.01220703125000,0
355,419336179,-0.351338,-0.579605,0.509987,-0.529656,1.00000000000000,-0.00006498955190,0.00003070104867,0.00000710319728,0.08042103052139,-0.01085633039474,-0.01591026782990,9.65090942382812,-1.30281162261963,-1.90930831432343,-0.89370626211166,0.42218661308289,0.09767988324165,-1.22802734375000,-0.46923828125000,-0.01123046875000,0
