sep=,
DeviceTag:,LT
FirmwareVersion:,3.0.0
AppVersion:,2023.6.0
StartTime: ,2025-02-11_12:17:11_000 EST
© Movella Technologies B. V. 2005-2025

PacketCounter,SampleTimeFine,Quat_W,Quat_X,Quat_Y,Quat_Z,dq_W,dq_X,dq_Y,dq_Z,dv[1],dv[2],dv[3],Acc_X,Acc_Y,Acc_Z,Gyr_X,Gyr_Y,Gyr_Z,Mag_X,Mag_Y,Mag_Z,Status
0,416361298,-0.870043,0.161375,0.105232,0.453779,0.00000000000000,0.00000000000000,0.00000000000000,0.00000000000000,0.00000000000000,0.00000000000000,0.00000000000000,0.00000000000000,0.00000000000000,0.00000000000000,0.00000000000000,0.00000000000000,0.00000000000000,-0.81933593750000,-0.28466796875000,-1.19921875000000,0
1,416369631,-0.870051,0.161333,0.105272,0.453770,1.00000000000000,-0.00000290852040,-0.00010062474757,0.00006916001439,0.02733856439590,-0.01488411426544,0.07631736993790,3.28235292434692,-1.78667187690735,9.15778064727783,-0.03999662771821,-1.38374495506287,0.95105648040771,-0.82031250000000,-0.28369140625000,-1.19580078125000,0
2,416377964,-0.870056,0.161302,0.105318,0.453761,1.00000000000000,-0.00000777002424,-0.00011466164142,0.00006685405970,0.02731043100357,-0.01504606008530,0.07652038335800,3.27895402908325,-1.80608928203583,9.18215560913086,-0.10684978961945,-1.57677400112152,0.91934615373611,-0.81738281250000,-0.28417968750000,-1.19921875000000,0
3,416386297,-0.870063,0.161255,0.105363,0.453752,1.00000000000000,0.00000337138772,-0.00010340940207,0.00006749667227,0.02728354930878,-0.01507717370987,0.07660949230194,3.27577447891235,-1.80970478057861,9.19285583496094,0.04636177048087,-1.42203843593597,0.92818313837051,-0.81787109375000,-0.28466796875000,-1.19824218750000,0
4,416394630,-0.870068,0.161204,0.105407,0.453750,1.00000000000000,0.00000755488873,-0.00010238494724,0.00005832128227,0.02714872360229,-0.01506525278091,0.07685613632202,3.25797653198242,-1.80790293216705,9.22310352325439,0.10389133542776,-1.40795052051544,0.80200725793839,-0.81738281250000,-0.28515625000000,-1.20166015625000,0
5,416402963,-0.870069,0.161118,0.105477,0.453763,1.00000000000000,0.00004499405622,-0.00010434817523,0.00003833323717,0.02733957767487,-0.01507335901260,0.07633870840073,3.28088021278381,-1.80887532234192,9.16101074218750,0.61873745918274,-1.43494784832001,0.52714091539383,-0.81933593750000,-0.28515625000000,-1.19677734375000,0
6,416411296,-0.870084,0.160996,0.105552,0.453760,1.00000000000000,0.00008569285274,-0.00009550619870,0.00005164183676,0.02729398012161,-0.01492094993591,0.07632130384445,3.27662706375122,-1.78962683677673,9.15867424011230,1.17840850353241,-1.31335723400116,0.71015471220016,-0.82177734375000,-0.28466796875000,-1.19677734375000,0
7,416419629,-0.870093,0.160881,0.105624,0.453766,1.00000000000000,0.00007405877113,-0.00009406637400,0.00004357285798,0.02732509374619,-0.01487755775452,0.07610940933228,3.28057670593262,-1.78439927101135,9.13316917419434,1.01842200756073,-1.29355728626251,0.59919375181198,-0.81884765625000,-0.28417968750000,-1.19824218750000,0
8,416427962,-0.870098,0.160811,0.105671,0.453771,1.00000000000000,0.00002465210855,-0.00009524729103,0.00005044229329,0.02744567394257,-0.01486641168594,0.07658034563065,3.29361248016357,-1.78404068946838,9.19000816345215,0.33900439739227,-1.30979669094086,0.69365906715393,-0.82031250000000,-0.28613281250000,-1.19677734375000,0
9,416436295,-0.870103,0.160757,0.105713,0.453770,1.00000000000000,0.00000703707337,-0.00009672809392,0.00005954131484,0.02741211652756,-0.01478302478790,0.07638555765152,3.28958535194397,-1.77403378486633,9.16663265228271,0.09677057713270,-1.33015990257263,0.81878465414047,-0.81884765625000,-0.28662109375000,-1.19677734375000,0
10,416444628,-0.870106,0.160734,0.105739,0.453768,1.00000000000000,-0.00002571661025,-0.00009887013584,0.00006337836385,0.02742743492126,-0.01472353935242,0.07626461982727,3.29142308235168,-1.76689565181732,9.15211868286133,-0.35364297032356,-1.35961651802063,0.87155002355576,-0.81982421875000,-0.28759765625000,-1.19775390625000,0
11,416452961,-0.870115,0.160684,0.105783,0.453758,1.00000000000000,0.00000619702041,-0.00010135304183,0.00006947107613,0.02734720706940,-0.01465529203415,0.07617217302322,3.28337907791138,-1.75904333591461,9.14039134979248,0.08521855622530,-1.39376008510590,0.95533406734467,-0.81933593750000,-0.28857421875000,-1.19873046875000,0
12,416461294,-0.870132,0.160626,0.105825,0.453735,1.00000000000000,0.00001798756421,-0.00009945500642,0.00008219853044,0.02742403745651,-0.01462960243225,0.07635813951492,3.29236316680908,-1.75580775737762,9.16282367706299,0.24735666811466,-1.36765921115875,1.13035619258881,-0.81982421875000,-0.28759765625000,-1.19482421875000,0
13,416469627,-0.870140,0.160609,0.105847,0.453722,1.00000000000000,-0.00003315415233,-0.00009754952043,0.00007873401046,0.02728027105331,-0.01473021507263,0.07661700248718,3.27510619163513,-1.76869368553162,9.19373798370361,-0.45592057704926,-1.34145581722260,1.08271372318268,-0.81982421875000,-0.28564453125000,-1.19970703125000,0
14,416477960,-0.870134,0.160659,0.105833,0.453719,1.00000000000000,-0.00010791886598,-0.00009912531823,0.00007435865700,0.02724820375443,-0.01486307382584,0.07639938592911,3.27077174186707,-1.78500056266785,9.16772174835205,-1.48405039310455,-1.36312568187714,1.02254593372345,-0.81982421875000,-0.28369140625000,-1.19775390625000,0
15,416486293,-0.870124,0.160700,0.105822,0.453725,1.00000000000000,-0.00010322686285,-0.00009365845472,0.00006598792970,0.02716594934464,-0.01505488157272,0.07646238803864,3.26097154617310,-1.80811452865601,9.17523670196533,-1.41952800750732,-1.28794777393341,0.90743547677994,-0.82031250000000,-0.28515625000000,-1.19433593750000,0
16,416494626,-0.870111,0.160698,0.105841,0.453747,1.00000000000000,-0.00005120690912,-0.00010132696480,0.00003854185343,0.02711057662964,-0.01508671045303,0.07619494199753,3.25339913368225,-1.81047749519348,9.14375782012939,-0.70417374372482,-1.39340162277222,0.53000974655151,-0.81738281250000,-0.28515625000000,-1.19726562500000,0
17,416502959,-0.870109,0.160641,0.105890,0.453759,1.00000000000000,0.00001017004251,-0.00009984243661,0.00004428997636,0.02745777368546,-0.01499360799789,0.07642835378647,3.29506444931030,-1.79930484294891,9.17176818847656,0.13985371589661,-1.37298703193665,0.60905522108078,-0.81640625000000,-0.28808593750000,-1.19482421875000,0
18,416511292,-0.870108,0.160587,0.105936,0.453770,1.00000000000000,0.00000923499465,-0.00010040495545,0.00004397146404,0.02734416723251,-0.01494485139847,0.07652151584625,3.28143119812012,-1.79345381259918,9.18294811248779,0.12699536979198,-1.38072240352631,0.60467523336411,-0.81933593750000,-0.28662109375000,-1.19775390625000,0
19,416519625,-0.870099,0.160571,0.105979,0.453783,1.00000000000000,-0.00002908613533,-0.00011397805065,0.00004446506500,0.02753865718842,-0.01486867666245,0.07679408788681,3.30660128593445,-1.78509438037872,9.21485233306885,-0.39997908473015,-1.56737351417542,0.61146301031113,-0.81689453125000,-0.28662109375000,-1.19482421875000,0
20,416527958,-0.870089,0.160569,0.106026,0.453791,1.00000000000000,-0.00003722961992,-0.00012682843953,0.00004793331027,0.02744144201279,-0.01494723558426,0.07622182369232,3.29472351074219,-1.79449141025543,9.14625358581543,-0.51196455955505,-1.74408614635468,0.65915673971176,-0.81982421875000,-0.28515625000000,-1.19384765625000,0
21,416536291,-0.870085,0.160547,0.106071,0.453796,1.00000000000000,-0.00002097245306,-0.00011443626136,0.00005339458585,0.02742975950241,-0.01500457525253,0.07631367444992,3.29343438148499,-1.80128979682922,9.15725421905518,-0.28840345144272,-1.57367467880249,0.73425763845444,-0.81982421875000,-0.28466796875000,-1.19628906250000,0
22,416544624,-0.870086,0.160482,0.106124,0.453805,1.00000000000000,0.00002173520625,-0.00010194722563,0.00004443340003,0.02747952938080,-0.01513099670410,0.07626944780350,3.29767513275146,-1.81579208374023,9.15269947052002,0.29889246821404,-1.40193092823029,0.61102747917175,-0.81787109375000,-0.28613281250000,-1.19775390625000,0
23,416552957,-0.870096,0.160354,0.106200,0.453814,1.00000000000000,0.00008663535118,-0.00009027216583,0.00003970600665,0.02763336896896,-0.01473945379257,0.07626235485077,3.31744432449341,-1.76766157150269,9.15159511566162,1.19136917591095,-1.24138104915619,0.54601860046387,-0.82031250000000,-0.28417968750000,-1.19628906250000,0
24,416561290,-0.870113,0.160219,0.106274,0.453811,1.00000000000000,0.00009702332318,-0.00008933898062,0.00005164369941,0.02762848138809,-0.01476842164993,0.07631665468216,3.31662964820862,-1.77121567726135,9.15818023681641,1.33421993255615,-1.22854828834534,0.71018022298813,-0.82031250000000,-0.29052734375000,-1.19775390625000,0
25,416569623,-0.870122,0.160120,0.106336,0.453815,1.00000000000000,0.00005426444113,-0.00009220000356,0.00004872865975,0.02740478515625,-0.01463425159454,0.07646787166595,3.28870558738708,-1.75618028640747,9.17651081085205,0.74621951580048,-1.26789188385010,0.67009401321411,-0.81787109375000,-0.29052734375000,-1.19873046875000,0
26,416577956,-0.870130,0.160021,0.106392,0.453820,1.00000000000000,0.00005486421287,-0.00008924026042,0.00004744343460,0.02753347158432,-0.01464062929153,0.07632738351822,3.30414843559265,-1.75694561004639,9.15965175628662,0.75446730852127,-1.22719073295593,0.65242016315460,-0.81640625000000,-0.28710937500000,-1.19677734375000,0
27,416586289,-0.870146,0.159901,0.106446,0.453819,1.00000000000000,0.00007181987166,-0.00007628928870,0.00005511380732,0.02758318185806,-0.01455032825470,0.07634168863297,3.31011390686035,-1.74610912799835,9.16136837005615,0.98763352632523,-1.04909491539001,0.75789952278137,-0.82226562500000,-0.29150390625000,-1.19482421875000,0
28,416594622,-0.870165,0.159787,0.106487,0.453815,1.00000000000000,0.00006377324462,-0.00007013324648,0.00006094388664,0.02729570865631,-0.01467239856720,0.07663273811340,3.27561593055725,-1.76075816154480,9.19629573822021,0.87698024511337,-0.96443998813629,0.83807218074799,-0.82080078125000,-0.28564453125000,-1.19873046875000,0
29,416602955,-0.870171,0.159730,0.106520,0.453814,1.00000000000000,0.00000594742596,-0.00008692871779,0.00006138160825,0.02730053663254,-0.01463955640793,0.07679146528244,3.27619528770447,-1.75681686401367,9.21534347534180,0.08178624510765,-1.19540345668793,0.84409147500992,-0.82031250000000,-0.28759765625000,-1.19726562500000,0
30,416611288,-0.870173,0.159706,0.106524,0.453819,1.00000000000000,-0.00003517139703,-0.00007855426520,0.00006023608148,0.02753394842148,-0.01475280523300,0.07673990726471,3.30420613288879,-1.77040719985962,9.20915699005127,-0.48366075754166,-1.08024191856384,0.82833874225616,-0.81884765625000,-0.28955078125000,-1.19531250000000,0
31,416619621,-0.870166,0.159670,0.106548,0.453838,1.00000000000000,-0.00002076942474,-0.00008770171553,0.00004173256457,0.02745479345322,-0.01486885547638,0.07640653848648,3.29470705986023,-1.78433370590210,9.16915035247803,-0.28561151027679,-1.20603346824646,0.57388693094254,-0.81933593750000,-0.28710937500000,-1.19873046875000,0
32,416627954,-0.870173,0.159589,0.106588,0.453845,1.00000000000000,0.00003129430115,-0.00008285511285,0.00004947371781,0.02747964859009,-0.01508945226669,0.07629483938217,3.29768919944763,-1.81080687046051,9.15574645996094,0.43034473061562,-1.13938510417938,0.68033969402313,-0.81982421875000,-0.28662109375000,-1.19775390625000,0
33,416636287,-0.870181,0.159437,0.106657,0.453865,1.00000000000000,0.00010266155005,-0.00007198471576,0.00002724863589,0.02734845876694,-0.01455950737000,0.07627028226852,3.28305292129517,-1.74567174911499,9.15269660949707,1.41175436973572,-0.98990058898926,0.37471067905426,-0.81884765625000,-0.28955078125000,-1.19726562500000,0
34,416644620,-0.870199,0.159271,0.106728,0.453874,1.00000000000000,0.00012175552547,-0.00007081683725,0.00003896094859,0.02739864587784,-0.01442420482635,0.07637059688568,3.28878021240234,-1.72959530353546,9.16480731964111,1.67432558536530,-0.97384035587311,0.53577297925949,-0.81738281250000,-0.28906250000000,-1.19726562500000,0
35,416652953,-0.870210,0.159158,0.106772,0.453882,1.00000000000000,0.00005890615284,-0.00006958562881,0.00004696846008,0.02747267484665,-0.01418346166611,0.07674777507782,3.29685235023499,-1.70208299160004,9.21010112762451,0.81005018949509,-0.95690941810608,0.64588856697083,-0.82275390625000,-0.29150390625000,-1.19482421875000,0
36,416661286,-0.870213,0.159102,0.106788,0.453893,1.00000000000000,-0.00000246334821,-0.00007328297943,0.00005135871470,0.02728265523911,-0.01448357105255,0.07683032751083,3.27404928207397,-1.73809790611267,9.22000694274902,-0.03387482836843,-1.00775361061096,0.70626127719879,-0.81738281250000,-0.28857421875000,-1.19628906250000,0
37,416669619,-0.870212,0.159070,0.106792,0.453903,1.00000000000000,-0.00003120396286,-0.00007265713066,0.00005546398461,0.02717036008835,-0.01464426517487,0.07654356956482,3.26057338714600,-1.75738203525543,9.18559551239014,-0.42910245060921,-0.99914717674255,0.76271504163742,-0.81738281250000,-0.29150390625000,-1.19824218750000,0
38,416677952,-0.870216,0.159040,0.106797,0.453906,1.00000000000000,-0.00002906564623,-0.00007680710405,0.00006236881018,0.02734845876694,-0.01456254720688,0.07658314704895,3.28194594383240,-1.74757575988770,9.19034481048584,-0.39969730377197,-1.05621576309204,0.85766702890396,-0.81640625000000,-0.28906250000000,-1.19335937500000,0
39,416686285,-0.870219,0.158999,0.106804,0.453913,1.00000000000000,-0.00002164673060,-0.00007101427764,0.00005803257227,0.02725738286972,-0.01448333263397,0.07629328966141,3.27101731300354,-1.73806893825531,9.15556144714355,-0.29767581820488,-0.97655558586121,0.79803711175919,-0.81884765625000,-0.28857421875000,-1.19531250000000,0
40,416694618,-0.870228,0.158951,0.106817,0.453910,1.00000000000000,-0.00000774394721,-0.00007618125528,0.00006741844118,0.02724248170853,-0.01461499929428,0.07662749290466,3.26922821998596,-1.75386989116669,9.19566631317139,-0.10649117827415,-1.04760944843292,0.92710715532303,-0.81835937500000,-0.28955078125000,-1.19921875000000,0
41,416702951,-0.870227,0.158928,0.106832,0.453916,1.00000000000000,-0.00003412272781,-0.00008750800043,0.00005839392543,0.02718693017960,-0.01488381624222,0.07647973299026,3.26256179809570,-1.78612923622131,9.17793464660645,-0.46923992037773,-1.20336949825287,0.80300617218018,-0.81835937500000,-0.29541015625000,-1.19433593750000,0
42,416711284,-0.870231,0.158884,0.106845,0.453919,1.00000000000000,-0.00001356098801,-0.00007692817599,0.00005955807865,0.02752065658569,-0.01469171047211,0.07650357484818,3.30261063575745,-1.76307559013367,9.18079566955566,-0.18648442625999,-1.05788075923920,0.81901520490646,-0.81787109375000,-0.28857421875000,-1.19775390625000,0
43,416719617,-0.870243,0.158824,0.106873,0.453912,1.00000000000000,0.00000802613795,-0.00008248444647,0.00006929039955,0.02727550268173,-0.01454001665115,0.07644963264465,3.27319073677063,-1.74487209320068,9.17432308197021,0.11037173867226,-1.13428795337677,0.95284950733185,-0.81640625000000,-0.28955078125000,-1.19335937500000,0
44,416727950,-0.870251,0.158785,0.106892,0.453906,1.00000000000000,-0.00001300219446,-0.00008575711399,0.00006873160601,0.02725696563721,-0.01447099447250,0.07693707942963,3.27096629142761,-1.73658919334412,9.23281860351562,-0.17880018055439,-1.17929220199585,0.94516533613205,-0.81933593750000,-0.29150390625000,-1.19531250000000,0
45,416736283,-0.870253,0.158789,0.106890,0.453900,1.00000000000000,-0.00006322655827,-0.00008551310748,0.00007554516196,0.02730166912079,-0.01426208019257,0.07678157091141,3.27748441696167,-1.71297180652618,9.21347618103027,-0.86946243047714,-1.17593681812286,1.03886222839355,-0.81689453125000,-0.29443359375000,-1.19482421875000,0
46,416744616,-0.870253,0.158818,0.106879,0.453892,1.00000000000000,-0.00008686725050,-0.00009242724627,0.00007960572839,0.02710247039795,-0.01465004682541,0.07639569044113,3.25336647033691,-1.75947833061218,9.16724586486816,-1.19455826282501,-1.27101659774780,1.09470117092133,-0.81933593750000,-0.28857421875000,-1.19238281250000,0
47,416752949,-0.870255,0.158859,0.106866,0.453878,1.00000000000000,-0.00010034348816,-0.00009383168072,0.00008833035827,0.02732944488525,-0.01437968015671,0.07643836736679,3.28045582771301,-1.72698271274567,9.17243480682373,-1.37987720966339,-1.29032981395721,1.21467816829681,-0.81835937500000,-0.28906250000000,-1.19726562500000,0
48,416761282,-0.870265,0.158901,0.106854,0.453846,1.00000000000000,-0.00009416323155,-0.00010053161532,0.00010643899441,0.02733623981476,-0.01442724466324,0.07652026414871,3.28120636940002,-1.73253238201141,9.18231391906738,-1.29488921165466,-1.38246428966522,1.46369969844818,-0.81884765625000,-0.29003906250000,-1.19677734375000,0
49,416769615,-0.870271,0.158959,0.106833,0.453821,1.00000000000000,-0.00011592265218,-0.00009596813470,0.00010230764747,0.02727621793747,-0.01438975334167,0.07625615596771,3.27390742301941,-1.72809553146362,9.15064144134521,-1.59411454200745,-1.31970942020416,1.40688753128052,-0.81591796875000,-0.29199218750000,-1.19628906250000,0
50,416777948,-0.870275,0.159046,0.106808,0.453787,1.00000000000000,-0.00014112796634,-0.00010964553803,0.00011198222637,0.02726554870605,-0.01440948247910,0.07645219564438,3.27254104614258,-1.73031985759735,9.17422676086426,-1.94072675704956,-1.50779485702515,1.53992795944214,-0.81933593750000,-0.29052734375000,-1.19580078125000,0
51,416786281,-0.870273,0.159149,0.106782,0.453761,1.00000000000000,-0.00015890505165,-0.00011363346130,0.00010513328016,0.02725452184677,-0.01479387283325,0.07656508684158,3.27171182632446,-1.77752041816711,9.18738651275635,-2.18518877029419,-1.56263482570648,1.44574439525604,-0.81396484375000,-0.29101562500000,-1.19531250000000,0
52,416794614,-0.870277,0.159209,0.106768,0.453736,1.00000000000000,-0.00011308025569,-0.00010582525283,0.00009970739484,0.02753424644470,-0.01480400562286,0.07613670825958,3.30493497848511,-1.77774858474731,9.13628673553467,-1.55502748489380,-1.45525991916656,1.37113010883331,-0.81884765625000,-0.29052734375000,-1.19775390625000,0
53,416802947,-0.870285,0.159208,0.106778,0.453718,1.00000000000000,-0.00005023088306,-0.00009548943490,0.00008629262447,0.02749490737915,-0.01499342918396,0.07637959718704,3.30064463615417,-1.80044710636139,9.16528415679932,-0.69075191020966,-1.31312656402588,1.18665623664856,-0.81884765625000,-0.29296875000000,-1.19580078125000,0
54,416811280,-0.870303,0.159177,0.106809,0.453688,1.00000000000000,-0.00001105200499,-0.00010275375098,0.00009347870946,0.02749544382095,-0.01475065946579,0.07624554634094,3.30077385902405,-1.77077901363373,9.14928150177002,-0.15198206901550,-1.41302192211151,1.28547596931458,-0.81835937500000,-0.29101562500000,-1.19628906250000,0
55,416819613,-0.870319,0.159157,0.106831,0.453660,1.00000000000000,-0.00002705398947,-0.00009855907410,0.00009462796152,0.02742350101471,-0.01447480916977,0.07701861858368,3.29209852218628,-1.73790895938873,9.24203300476074,-0.37203398346901,-1.35533905029297,1.30128002166748,-0.82177734375000,-0.29052734375000,-1.19580078125000,0
56,416827946,-0.870323,0.159199,0.106821,0.453638,1.00000000000000,-0.00009527150542,-0.00010005105287,0.00009445101023,0.02758282423019,-0.01463025808334,0.07653236389160,3.31087231636047,-1.75696480274200,9.18371963500977,-1.31012952327728,-1.37585580348969,1.29884660243988,-0.81933593750000,-0.28955078125000,-1.19628906250000,0
57,416836279,-0.870337,0.159228,0.106823,0.453601,1.00000000000000,-0.00007895659655,-0.00010429229587,0.00011050142348,0.02752733230591,-0.01467901468277,0.07627832889557,3.30418395996094,-1.76265776157379,9.15327358245850,-1.08577466011047,-1.43417942523956,1.51956462860107,-0.82177734375000,-0.28808593750000,-1.19628906250000,0
58,416844612,-0.870363,0.159215,0.106843,0.453552,1.00000000000000,-0.00002734083682,-0.00010397005826,0.00011636689305,0.02748912572861,-0.01484572887421,0.07656419277191,3.29971528053284,-1.78231251239777,9.18760490417480,-0.37597855925560,-1.42974817752838,1.60022366046906,-0.81835937500000,-0.28955078125000,-1.19384765625000,0
59,416852945,-0.870386,0.159198,0.106876,0.453506,1.00000000000000,-0.00002176221460,-0.00011084508151,0.00011267513037,0.02742117643356,-0.01483160257339,0.07659977674484,3.29163098335266,-1.78053140640259,9.19186782836914,-0.29926392436028,-1.52429044246674,1.54945635795593,-0.82177734375000,-0.29003906250000,-1.19482421875000,0
60,416861278,-0.870403,0.159191,0.106893,0.453471,1.00000000000000,-0.00003702100366,-0.00010275188833,0.00010175257921,0.02739655971527,-0.01446336507797,0.07661348581314,3.28874540328979,-1.73657631874084,9.19344806671143,-0.50909572839737,-1.41299641132355,1.39925432205200,-0.81982421875000,-0.28710937500000,-1.19384765625000,0
61,416869611,-0.870425,0.159184,0.106917,0.453426,1.00000000000000,-0.00003483612090,-0.00010714400560,0.00011307373643,0.02739953994751,-0.01470673084259,0.07664144039154,3.28899526596069,-1.76568794250488,9.19685649871826,-0.47905021905899,-1.47339463233948,1.55493760108948,-0.81933593750000,-0.29052734375000,-1.19531250000000,0
62,416877944,-0.870448,0.159174,0.106951,0.453378,1.00000000000000,-0.00002468843013,-0.00011813733727,0.00011329352856,0.02737867832184,-0.01489287614822,0.07655072212219,3.28653264045715,-1.78786814212799,9.18598365783691,-0.33950385451317,-1.62457001209259,1.55796003341675,-0.82031250000000,-0.29003906250000,-1.19433593750000,0
63,416886277,-0.870471,0.159152,0.106990,0.453333,1.00000000000000,-0.00001437496394,-0.00011367071420,0.00011011399329,0.02747654914856,-0.01481527090073,0.07638019323349,3.29831624031067,-1.77848732471466,9.16551685333252,-0.19767786562443,-1.56314706802368,1.51423668861389,-0.82128906250000,-0.28857421875000,-1.19677734375000,0
64,416894610,-0.870496,0.159082,0.107053,0.453293,1.00000000000000,0.00003989413381,-0.00011398736387,0.00009575299919,0.02748626470566,-0.01491028070450,0.07629495859146,3.29957795143127,-1.78924381732941,9.15537834167480,0.54860568046570,-1.56750142574310,1.31675088405609,-0.81933593750000,-0.28808593750000,-1.19677734375000,0
65,416902943,-0.870521,0.158967,0.107138,0.453266,1.00000000000000,0.00008590333164,-0.00010774191469,0.00007755495608,0.02742427587509,-0.01461929082870,0.07621663808823,3.29205679893494,-1.75375318527222,9.14611721038818,1.18130314350128,-1.48161709308624,1.06649994850159,-0.81933593750000,-0.29101562500000,-1.19433593750000,0
66,416911276,-0.870553,0.158840,0.107222,0.453228,1.00000000000000,0.00010048411787,-0.00010615307838,0.00008803047240,0.02742934226990,-0.01455920934677,0.07647991180420,3.29249238967896,-1.74652755260468,9.17777729034424,1.38181126117706,-1.45976817607880,1.21055448055267,-0.81640625000000,-0.29003906250000,-1.19921875000000,0
67,416919609,-0.870587,0.158733,0.107306,0.453180,1.00000000000000,0.00008131377399,-0.00011310260743,0.00010132417083,0.02731764316559,-0.01469248533249,0.07644456624985,3.27911090850830,-1.76275324821472,9.17348670959473,1.11818933486938,-1.55533468723297,1.39336299896240,-0.81835937500000,-0.29150390625000,-1.19677734375000,0
68,416927942,-0.870616,0.158633,0.107382,0.453143,1.00000000000000,0.00007263012230,-0.00011141691357,0.00008994340897,0.02750134468079,-0.01432859897614,0.07675057649612,3.30130100250244,-1.71907007694244,9.21015739440918,0.99877578020096,-1.53215372562408,1.23686003684998,-0.82324218750000,-0.28808593750000,-1.19628906250000,0
69,416936275,-0.870651,0.158538,0.107452,0.453092,1.00000000000000,0.00006573647261,-0.00010661315173,0.00010770745575,0.02730089426041,-0.01423537731171,0.07668942213058,3.27710890769958,-1.70803833007812,9.20283985137939,0.90397757291794,-1.46609473228455,1.48114323616028,-0.81787109375000,-0.29150390625000,-1.19482421875000,0
70,416944608,-0.870684,0.158504,0.107483,0.453034,1.00000000000000,-0.00000287499279,-0.00010462570935,0.00012438744307,0.02721804380417,-0.01437777280807,0.07689750194550,3.26714253425598,-1.72588980197906,9.22767734527588,-0.03953557088971,-1.43876445293427,1.71051859855652,-0.81982421875000,-0.29443359375000,-1.19384765625000,0
71,416952941,-0.870709,0.158511,0.107516,0.452975,1.00000000000000,-0.00004091206938,-0.00012373272330,0.00012692064047,0.02744501829147,-0.01431751251221,0.07661497592926,3.29436182975769,-1.71888542175293,9.19373416900635,-0.56260389089584,-1.70151531696320,1.74535417556763,-0.81835937500000,-0.29345703125000,-1.19873046875000,0
72,416961274,-0.870736,0.158525,0.107534,0.452914,1.00000000000000,-0.00005084928125,-0.00011588539928,0.00013159960508,0.02749580144882,-0.01439839601517,0.07627981901169,3.30037307739258,-1.72868108749390,9.15352344512939,-0.69925570487976,-1.59360241889954,1.80969679355621,-0.81835937500000,-0.28857421875000,-1.19531250000000,0
73,416969607,-0.870770,0.158532,0.107552,0.452842,1.00000000000000,-0.00004429463297,-0.00011187884957,0.00014457106590,0.02756851911545,-0.01453775167465,0.07642352581024,3.30900621414185,-1.74534499645233,9.17081260681152,-0.60911929607391,-1.53850626945496,1.98807454109192,-0.82128906250000,-0.29296875000000,-1.19628906250000,0
74,416977940,-0.870808,0.158518,0.107582,0.452767,1.00000000000000,-0.00001743528992,-0.00011448096484,0.00014368630946,0.02753168344498,-0.01455509662628,0.07620280981064,3.30463051795959,-1.74723637104034,9.14434432983398,-0.23976205289364,-1.57428944110870,1.97590780258179,-0.81835937500000,-0.28808593750000,-1.19775390625000,0
75,416986273,-0.870839,0.158513,0.107607,0.452703,1.00000000000000,-0.00003310013562,-0.00011177267879,0.00013372674584,0.02750349044800,-0.01423501968384,0.07660347223282,3.30130743980408,-1.70897674560547,9.19238090515137,-0.45517778396606,-1.53704631328583,1.83894836902618,-0.82177734375000,-0.29345703125000,-1.19238281250000,0
76,416994606,-0.870864,0.158533,0.107613,0.452646,1.00000000000000,-0.00006185378879,-0.00010797847062,0.00013004429638,0.02751308679581,-0.01452106237411,0.07689851522446,3.30241107940674,-1.74351704120636,9.22776317596436,-0.85058474540710,-1.48487007617950,1.78830897808075,-0.82226562500000,-0.29345703125000,-1.19335937500000,0
77,417002939,-0.870875,0.158583,0.107618,0.452606,1.00000000000000,-0.00009535346180,-0.00011677946895,0.00011349096894,0.02746766805649,-0.01442146301270,0.07692605257034,3.29698944091797,-1.73169457912445,9.23103427886963,-1.31125676631927,-1.60589742660522,1.56067538261414,-0.82080078125000,-0.28808593750000,-1.19775390625000,0
78,417011272,-0.870894,0.158610,0.107618,0.452560,1.00000000000000,-0.00007242430001,-0.00010532420129,0.00011886656284,0.02737277746201,-0.01433598995209,0.07622599601746,3.28560590744019,-1.72141754627228,9.14702415466309,-0.99594551324844,-1.44836986064911,1.63459801673889,-0.82031250000000,-0.29052734375000,-1.19873046875000,0
79,417019605,-0.870912,0.158614,0.107623,0.452522,1.00000000000000,-0.00005488004535,-0.00009461026639,0.00010969117284,0.02757000923157,-0.01444894075394,0.07650142908096,3.30937552452087,-1.73501884937286,9.18003082275391,-0.75468504428864,-1.30103659629822,1.50842237472534,-0.81640625000000,-0.29052734375000,-1.19384765625000,0
80,417027938,-0.870931,0.158613,0.107629,0.452486,1.00000000000000,-0.00004653912038,-0.00009620282799,0.00010582990944,0.02736186981201,-0.01440340280533,0.07652795314789,3.28447842597961,-1.72949838638306,9.18319797515869,-0.63998448848724,-1.32293677330017,1.45532393455505,-0.82080078125000,-0.28906250000000,-1.19677734375000,0
81,417036271,-0.870938,0.158637,0.107640,0.452459,1.00000000000000,-0.00007213000208,-0.00010857451707,0.00009618699551,0.02761727571487,-0.01438742876053,0.07645946741104,3.31514811515808,-1.72767412662506,9.17495250701904,-0.99189841747284,-1.49306643009186,1.32271909713745,-0.81982421875000,-0.29052734375000,-1.19433593750000,0
82,417044604,-0.870950,0.158682,0.107625,0.452425,1.00000000000000,-0.00009799841791,-0.00009843055159,0.00011017918587,0.02742213010788,-0.01438432931900,0.07680720090866,3.29146695137024,-1.72738873958588,9.21676445007324,-1.34762907028198,-1.35357141494751,1.51513326168060,-0.81835937500000,-0.29199218750000,-1.19726562500000,0
83,417052937,-0.870955,0.158749,0.107609,0.452396,1.00000000000000,-0.00012145470828,-0.00010596867651,0.00010519102216,0.02740037441254,-0.01442658901215,0.07672083377838,3.28881454467773,-1.73243772983551,9.20641803741455,-1.67018902301788,-1.45723223686218,1.44653832912445,-0.81933593750000,-0.29101562500000,-1.19726562500000,0
84,417061270,-0.870968,0.158798,0.107591,0.452358,1.00000000000000,-0.00010219123214,-0.00009781587869,0.00011526979506,0.02743726968765,-0.01418316364288,0.07648903131485,3.29323148727417,-1.70322680473328,9.17860603332520,-1.40528643131256,-1.34511852264404,1.58513677120209,-0.82031250000000,-0.28955078125000,-1.19824218750000,0
85,417069603,-0.870983,0.158844,0.107578,0.452316,1.00000000000000,-0.00009970646352,-0.00009989645332,0.00011897273362,0.02713280916214,-0.01429468393326,0.07665020227432,3.25669193267822,-1.71657156944275,9.19795799255371,-1.37111723423004,-1.37372982501984,1.63605809211731,-0.82177734375000,-0.28857421875000,-1.19580078125000,0
86,417077936,-0.870992,0.158941,0.107547,0.452272,1.00000000000000,-0.00014932919294,-0.00010985042900,0.00012477859855,0.02738058567047,-0.01438397169113,0.07663279771805,3.28675007820129,-1.72827422618866,9.19556522369385,-2.05350589752197,-1.51061224937439,1.71589756011963,-0.82226562500000,-0.29199218750000,-1.19433593750000,0
87,417086269,-0.870993,0.159080,0.107508,0.452231,0.99999994039536,-0.00019414257258,-0.00012093130499,0.00012635439634,0.02732485532761,-0.01465296745300,0.07625758647919,3.27988600730896,-1.76033914089203,9.15063285827637,-2.66975927352905,-1.66299152374268,1.73756742477417,-0.81982421875000,-0.29003906250000,-1.19433593750000,0
88,417094602,-0.871005,0.159197,0.107469,0.452175,1.00000000000000,-0.00016923900694,-0.00011369306594,0.00013979151845,0.02742809057236,-0.01449197530746,0.07630014419556,3.29227972030640,-1.74106669425964,9.15572929382324,-2.32729649543762,-1.56345438957214,1.92234826087952,-0.81835937500000,-0.29052734375000,-1.19873046875000,0
89,417102935,-0.871027,0.159281,0.107463,0.452105,1.00000000000000,-0.00012463983148,-0.00012616533786,0.00014985725284,0.02718460559845,-0.01462519168854,0.07651019096375,3.26327323913574,-1.75689899921417,9.18089199066162,-1.71398925781250,-1.73496758937836,2.06076788902283,-0.82275390625000,-0.29052734375000,-1.19482421875000,0
90,417111268,-0.871037,0.159408,0.107442,0.452045,0.99999994039536,-0.00016974937171,-0.00013506505638,0.00014133006334,0.02752965688705,-0.01438909769058,0.07654267549515,3.30457735061646,-1.72856223583221,9.18483161926270,-2.33431482315063,-1.85735237598419,1.94350576400757,-0.82177734375000,-0.29052734375000,-1.19433593750000,0
91,417119601,-0.871043,0.159594,0.107390,0.451981,0.99999994039536,-0.00023759622127,-0.00013320799917,0.00015563145280,0.02750951051712,-0.01455616950989,0.07657289505005,3.30213856697083,-1.74926030635834,9.18833827972412,-3.26731348037720,-1.83181488513947,2.14017200469971,-0.82177734375000,-0.28759765625000,-1.19482421875000,0
92,417127934,-0.871047,0.159802,0.107325,0.451915,0.99999994039536,-0.00026001688093,-0.00013539846987,0.00015960261226,0.02739953994751,-0.01503479480743,0.07653492689133,3.28909850120544,-1.80736410617828,9.18357944488525,-3.57563233375549,-1.86193728446960,2.19478154182434,-0.82226562500000,-0.28662109375000,-1.19677734375000,0
93,417136267,-0.871044,0.159977,0.107274,0.451872,0.99999994039536,-0.00023223925382,-0.00012671668082,0.00013146921992,0.02738267183304,-0.01534360647202,0.07608449459076,3.28698897361755,-1.84392106533051,9.12963867187500,-3.19364690780640,-1.74254918098450,1.80790388584137,-0.82324218750000,-0.28613281250000,-1.19628906250000,0
94,417144600,-0.871054,0.160051,0.107263,0.451828,1.00000000000000,-0.00012024398893,-0.00011727306992,0.00011954642832,0.02757090330124,-0.01532143354416,0.07602882385254,3.30923676490784,-1.83969211578369,9.12339591979980,-1.65353977680206,-1.61268508434296,1.64394724369049,-0.82226562500000,-0.28710937500000,-1.19775390625000,0
95,417152933,-0.871073,0.160030,0.107290,0.451792,1.00000000000000,-0.00002309959382,-0.00010233651847,0.00010253116488,0.02750420570374,-0.01492255926132,0.07616215944290,3.30167746543884,-1.79153978824615,9.13929843902588,-0.31765490770340,-1.40728449821472,1.40996110439301,-0.82128906250000,-0.28564453125000,-1.19531250000000,0
96,417161266,-0.871089,0.160003,0.107326,0.451763,1.00000000000000,-0.00001210253686,-0.00010931584984,0.00009117089212,0.02737706899643,-0.01487964391708,0.07649493217468,3.28660726547241,-1.78622806072235,9.17920207977295,-0.16642850637436,-1.50326108932495,1.25373995304108,-0.82080078125000,-0.28808593750000,-1.19628906250000,0
97,417169599,-0.871095,0.160007,0.107350,0.451744,1.00000000000000,-0.00004876684397,-0.00011047068983,0.00008397921920,0.02733343839645,-0.01511627435684,0.07644027471542,3.28132963180542,-1.81502127647400,9.17257881164551,-0.67061907052994,-1.51914179325104,1.15484333038330,-0.82226562500000,-0.28955078125000,-1.19433593750000,0
98,417177932,-0.871113,0.159974,0.107393,0.451710,1.00000000000000,-0.00000267941505,-0.00011324603111,0.00009503588080,0.02750569581985,-0.01480334997177,0.07630783319473,3.30199861526489,-1.77693462371826,9.15678977966309,-0.03684607893229,-1.55730712413788,1.30688965320587,-0.82031250000000,-0.28759765625000,-1.19873046875000,0
99,417186265,-0.871135,0.159909,0.107443,0.451680,1.00000000000000,0.00002528540790,-0.00010192301124,0.00008973479271,0.02728211879730,-0.01508843898773,0.07653284072876,3.27519345283508,-1.81078135967255,9.18385887145996,0.34771323204041,-1.40159809589386,1.23399126529694,-0.81982421875000,-0.28857421875000,-1.19531250000000,0
100,417194598,-0.871145,0.159861,0.107491,0.451665,1.00000000000000,0.00000990740955,-0.00010871235281,0.00007231347263,0.02735131978989,-0.01492637395859,0.07623374462128,3.28379344940186,-1.79149115085602,9.14782619476318,0.13624212145805,-1.49496209621429,0.99442154169083,-0.82421875000000,-0.28808593750000,-1.19824218750000,0
101,417202931,-0.871164,0.159778,0.107547,0.451645,1.00000000000000,0.00004205107689,-0.00009708385915,0.00007636845112,0.02761119604111,-0.01484650373459,0.07661801576614,3.31480002403259,-1.78141856193542,9.19409561157227,0.57826691865921,-1.33505213260651,1.05018365383148,-0.82373046875000,-0.28857421875000,-1.19726562500000,0
102,417211264,-0.871192,0.159670,0.107617,0.451613,1.00000000000000,0.00007638521492,-0.00010166596621,0.00008584372699,0.02741825580597,-0.01481962203979,0.07638120651245,3.29130864143372,-1.77789700031281,9.16585922241211,1.05041408538818,-1.39806330204010,1.18048322200775,-0.82031250000000,-0.28906250000000,-1.19726562500000,0
103,417219597,-0.871218,0.159561,0.107700,0.451582,1.00000000000000,0.00008002854884,-0.00011001434177,0.00008154474199,0.02760261297226,-0.01457548141479,0.07635051012039,3.31347107887268,-1.74857878684998,9.16216182708740,1.10051548480988,-1.51286637783051,1.12136554718018,-0.82128906250000,-0.28808593750000,-1.19335937500000,0
104,417227930,-0.871243,0.159483,0.107750,0.451549,1.00000000000000,0.00004102848470,-0.00009849015623,0.00009126961231,0.02747875452042,-0.01448029279709,0.07671517133713,3.29871320724487,-1.73758876323700,9.20580482482910,0.56420469284058,-1.35439097881317,1.25509727001190,-0.82373046875000,-0.28955078125000,-1.19580078125000,0
105,417236263,-0.871259,0.159448,0.107783,0.451522,1.00000000000000,-0.00000963453203,-0.00010039191693,0.00009093247354,0.02744227647781,-0.01470547914505,0.07646715641022,3.29443430900574,-1.76535475254059,9.17586326599121,-0.13248962163925,-1.38054299354553,1.25046122074127,-0.82128906250000,-0.28906250000000,-1.19677734375000,0
106,417244596,-0.871273,0.159400,0.107827,0.451501,1.00000000000000,0.00000931695104,-0.00010605994612,0.00007953308523,0.02758842706680,-0.01463973522186,0.07616311311722,3.31214332580566,-1.75713908672333,9.13937377929688,0.12812240421772,-1.45848739147186,1.09370219707489,-0.82177734375000,-0.28613281250000,-1.19433593750000,0
107,417252929,-0.871300,0.159292,0.107897,0.451471,1.00000000000000,0.00007293932140,-0.00009920168668,0.00008446909487,0.02743625640869,-0.01472431421280,0.07662779092789,3.29350209236145,-1.76646363735199,9.19543743133545,1.00302779674530,-1.36417567729950,1.16157984733582,-0.82226562500000,-0.29003906250000,-1.19677734375000,0
108,417261262,-0.871324,0.159202,0.107951,0.451445,1.00000000000000,0.00005124323070,-0.00009507406503,0.00008281134069,0.02757364511490,-0.01450532674789,0.07665979862213,3.31014490127563,-1.74039137363434,9.19918060302734,0.70467317104340,-1.30741453170776,1.13878321647644,-0.82275390625000,-0.29296875000000,-1.19580078125000,0
109,417269595,-0.871342,0.159147,0.107989,0.451419,1.00000000000000,0.00001127272844,-0.00009552109987,0.00008734688163,0.02763003110886,-0.01443475484848,0.07674127817154,3.31702208518982,-1.73256802558899,9.20879650115967,0.15501736104488,-1.31356191635132,1.20115399360657,-0.82324218750000,-0.28808593750000,-1.19580078125000,0
110,417277928,-0.871352,0.159135,0.108009,0.451400,1.00000000000000,-0.00003466848284,-0.00010119844228,0.00008411146700,0.02723801136017,-0.01444607973099,0.07657259702682,3.26995372772217,-1.73455429077148,9.18844890594482,-0.47674492001534,-1.39163410663605,1.15666186809540,-0.82080078125000,-0.28906250000000,-1.19384765625000,0
111,417286261,-0.871361,0.159138,0.108016,0.451379,1.00000000000000,-0.00005582999438,-0.00009483378381,0.00008993409574,0.02769291400909,-0.01443469524384,0.07668876647949,3.32434034347534,-1.73343181610107,9.20241165161133,-0.76774829626083,-1.30411028862000,1.23673200607300,-0.82470703125000,-0.29150390625000,-1.19677734375000,0
112,417294594,-0.871373,0.159134,0.108024,0.451355,1.00000000000000,-0.00004610698670,-0.00009517464787,0.00009173154831,0.02754843235016,-0.01448059082031,0.07649350166321,3.30702996253967,-1.73884510993958,9.17898654937744,-0.63404196500778,-1.30879771709442,1.26145005226135,-0.82177734375000,-0.29101562500000,-1.19775390625000,0
113,417302927,-0.871383,0.159145,0.108023,0.451332,1.00000000000000,-0.00006597954780,-0.00009193737060,0.00009448267519,0.02762347459793,-0.01448237895966,0.07665640115738,3.31588363647461,-1.73921680450439,9.19856071472168,-0.90732020139694,-1.26428020000458,1.29928207397461,-0.82421875000000,-0.29052734375000,-1.19531250000000,0
114,417311260,-0.871393,0.159177,0.108006,0.451306,1.00000000000000,-0.00008802209049,-0.00008952710778,0.00010078214109,0.02754235267639,-0.01439654827118,0.07670521736145,3.30596208572388,-1.72896933555603,9.20447826385498,-1.21043908596039,-1.23113536834717,1.38590943813324,-0.82470703125000,-0.29150390625000,-1.19238281250000,0
115,417319593,-0.871398,0.159227,0.107983,0.451284,1.00000000000000,-0.00011078175157,-0.00009113829583,0.00009990669787,0.02748703956604,-0.01451963186264,0.07633036375046,3.29922056198120,-1.74373650550842,9.15952777862549,-1.52341949939728,-1.25329172611237,1.37387084960938,-0.82617187500000,-0.28955078125000,-1.19384765625000,0
116,417327926,-0.871402,0.159286,0.107948,0.451264,1.00000000000000,-0.00012219604105,-0.00008580554277,0.00009805150330,0.02759760618210,-0.01462846994400,0.07664746046066,3.31242060661316,-1.75683963298798,9.19759559631348,-1.68038368225098,-1.17995822429657,1.34835898876190,-0.82031250000000,-0.28710937500000,-1.19628906250000,0
117,417336259,-0.871400,0.159367,0.107916,0.451248,1.00000000000000,-0.00014322157949,-0.00009705778211,0.00009606033564,0.02745133638382,-0.01474529504776,0.07626080513000,3.29483842849731,-1.77074444293976,9.15122604370117,-1.96951711177826,-1.33469390869141,1.32097733020782,-0.82666015625000,-0.28857421875000,-1.19531250000000,0
118,417344592,-0.871397,0.159433,0.107873,0.451241,1.00000000000000,-0.00013379659504,-0.00008065719157,0.00008591264486,0.02762180566788,-0.01470321416855,0.07616305351257,3.31529831886292,-1.76586973667145,9.13946056365967,-1.83990895748138,-1.10916042327881,1.18143093585968,-0.82031250000000,-0.29150390625000,-1.19482421875000,0
119,417352925,-0.871397,0.159460,0.107849,0.451235,1.00000000000000,-0.00009406451136,-0.00007701944560,0.00008057057858,0.02754729986191,-0.01462489366531,0.07670217752457,3.30660271644592,-1.75664365291595,9.20404052734375,-1.29353189468384,-1.05913591384888,1.10796940326691,-0.82470703125000,-0.29052734375000,-1.19335937500000,0
120,417361258,-0.871397,0.159516,0.107804,0.451226,1.00000000000000,-0.00012509804219,-0.00007509905845,0.00008847191930,0.02746826410294,-0.01456212997437,0.07674258947372,3.29687237739563,-1.74900293350220,9.20900058746338,-1.72029042243958,-1.03272759914398,1.21662497520447,-0.82177734375000,-0.29052734375000,-1.19580078125000,0
121,417369591,-0.871390,0.159620,0.107744,0.451217,1.00000000000000,-0.00017877575010,-0.00008182134479,0.00009397789836,0.02743303775787,-0.01477336883545,0.07665115594864,3.29283118247986,-1.77532756328583,9.19777011871338,-2.45844173431396,-1.12516927719116,1.29234063625336,-0.82275390625000,-0.29199218750000,-1.19628906250000,0
122,417377924,-0.871384,0.159716,0.107685,0.451209,1.00000000000000,-0.00016780290753,-0.00008140783757,0.00009190291166,0.02743309736252,-0.01496535539627,0.07642757892609,3.29250431060791,-1.79718399047852,9.17128372192383,-2.30754804611206,-1.11948299407959,1.26380646228790,-0.82080078125000,-0.28808593750000,-1.19482421875000,0
123,417386257,-0.871377,0.159783,0.107645,0.451209,1.00000000000000,-0.00013770628721,-0.00008082110435,0.00007952190936,0.02725589275360,-0.01548284292221,0.07643663883209,3.27139353752136,-1.85944199562073,9.17227554321289,-1.89367318153381,-1.11141443252563,1.09354865550995,-0.82324218750000,-0.28955078125000,-1.19531250000000,0
124,417394590,-0.871381,0.159770,0.107649,0.451204,1.00000000000000,-0.00004261452705,-0.00008536223322,0.00007075443864,0.02748173475266,-0.01505738496780,0.07595813274384,3.29793977737427,-1.80695831775665,9.11534023284912,-0.58601522445679,-1.17386198043823,0.97298234701157,-0.82177734375000,-0.28906250000000,-1.19726562500000,0
125,417402923,-0.871410,0.159657,0.107701,0.451177,1.00000000000000,0.00006930902600,-0.00008071307093,0.00008533149958,0.02738833427429,-0.01477044820786,0.07640165090561,3.28767442703247,-1.77195572853088,9.16833591461182,0.95310562849045,-1.10992884635925,1.17343926429749,-0.82080078125000,-0.28955078125000,-1.19531250000000,0
126,417411256,-0.871431,0.159582,0.107738,0.451153,1.00000000000000,0.00003041327000,-0.00008757691830,0.00008347816765,0.02725732326508,-0.01460546255112,0.07679337263107,3.27227497100830,-1.75271201133728,9.21512603759766,0.41822922229767,-1.20431721210480,1.14795315265656,-0.82226562500000,-0.28564453125000,-1.19140625000000,0
127,417419589,-0.871445,0.159569,0.107751,0.451128,1.00000000000000,-0.00003797654063,-0.00009275879711,0.00009354390204,0.02757614850998,-0.01455354690552,0.07686072587967,3.31036710739136,-1.74754166603088,9.22306346893311,-0.52223587036133,-1.27557599544525,1.28637242317200,-0.82324218750000,-0.28808593750000,-1.19580078125000,0
128,417427922,-0.871459,0.159592,0.107746,0.451094,1.00000000000000,-0.00007407274097,-0.00009733345360,0.00010638311505,0.02744179964066,-0.01459944248199,0.07635170221329,3.29394793510437,-1.75316989421844,9.16205978393555,-1.01861405372620,-1.33848464488983,1.46293127536774,-0.82275390625000,-0.28857421875000,-1.19775390625000,0
129,417436255,-0.871474,0.159590,0.107760,0.451063,1.00000000000000,-0.00004608090967,-0.00009996723384,0.00010006502271,0.02731609344482,-0.01476508378983,0.07643193006516,3.27905797958374,-1.77289175987244,9.17164611816406,-0.63368332386017,-1.37470316886902,1.37604796886444,-0.82226562500000,-0.28808593750000,-1.19921875000000,0
130,417444588,-0.871495,0.159551,0.107780,0.451031,1.00000000000000,-0.00000751297921,-0.00008950289339,0.00009782984853,0.02737414836884,-0.01481574773788,0.07647740840912,3.28612279891968,-1.77862036228180,9.17713546752930,-0.10331500321627,-1.23080229759216,1.34531068801880,-0.82275390625000,-0.29101562500000,-1.19628906250000,0
131,417452921,-0.871517,0.159505,0.107800,0.451001,1.00000000000000,-0.00000414531678,-0.00008441042155,0.00009598210454,0.02745860815048,-0.01452565193176,0.07664632797241,3.29627442359924,-1.74379396438599,9.19740676879883,-0.05700447782874,-1.16077291965485,1.31990146636963,-0.82177734375000,-0.28955078125000,-1.19531250000000,0
132,417461254,-0.871532,0.159496,0.107812,0.450972,1.00000000000000,-0.00003832112998,-0.00009653624147,0.00009587407112,0.02764517068863,-0.01469522714615,0.07654589414597,3.31862354278564,-1.76449716091156,9.18529510498047,-0.52697443962097,-1.32752168178558,1.31841588020325,-0.82275390625000,-0.28906250000000,-1.19433593750000,0
133,417469587,-0.871533,0.159497,0.107821,0.450967,1.00000000000000,-0.00005699787289,-0.00009380374104,0.00007238052785,0.02729225158691,-0.01480138301849,0.07637977600098,3.27646136283875,-1.77754640579224,9.16523551940918,-0.78380835056305,-1.28994560241699,0.99534350633621,-0.82128906250000,-0.28955078125000,-1.19628906250000,0
134,417477920,-0.871542,0.159454,0.107850,0.450957,1.00000000000000,-0.00000421050936,-0.00009359698743,0.00007105432451,0.02759641408920,-0.01495289802551,0.07624328136444,3.31170201301575,-1.79441940784454,9.14955902099609,-0.05790098011494,-1.28710258007050,0.97710615396500,-0.82275390625000,-0.28857421875000,-1.19775390625000,0
135,417486253,-0.871562,0.159342,0.107903,0.450946,1.00000000000000,0.00006612949073,-0.00008125882596,0.00006676651537,0.02744954824448,-0.01468592882156,0.07625925540924,3.29528617858887,-1.76163780689240,9.15118503570557,0.90938216447830,-1.11743366718292,0.91814219951630,-0.82177734375000,-0.28955078125000,-1.19775390625000,0
136,417494586,-0.871578,0.159248,0.107947,0.450937,1.00000000000000,0.00004827044904,-0.00008223485202,0.00006502680480,0.02769827842712,-0.01443099975586,0.07647460699081,3.32392621040344,-1.73178911209106,9.17731952667236,0.66379284858704,-1.13085567951202,0.89421850442886,-0.82080078125000,-0.28759765625000,-1.19775390625000,0
137,417502919,-0.871594,0.159191,0.107968,0.450922,1.00000000000000,0.00000319257379,-0.00007809232920,0.00007995590568,0.02758806943893,-0.01446288824081,0.07658237218857,3.31070041656494,-1.73561584949493,9.19025135040283,0.04390279576182,-1.07388949394226,1.09951663017273,-0.82226562500000,-0.28857421875000,-1.19628906250000,0
138,417511252,-0.871602,0.159168,0.107974,0.450913,1.00000000000000,-0.00003272760659,-0.00008313450962,0.00007492490113,0.02750313282013,-0.01445096731186,0.07661026716232,3.30050778388977,-1.73418533802032,9.19359874725342,-0.45005488395691,-1.14322721958160,1.03033256530762,-0.82324218750000,-0.28759765625000,-1.19482421875000,0
139,417519585,-0.871611,0.159149,0.107990,0.450899,1.00000000000000,-0.00003332924098,-0.00009215902537,0.00007995776832,0.02744656801224,-0.01445502042770,0.07634645700455,3.29503464698792,-1.73573100566864,9.16126823425293,-0.45832827687263,-1.26732826232910,1.09954226016998,-0.81884765625000,-0.29101562500000,-1.19384765625000,0
140,417527918,-0.871625,0.159119,0.107993,0.450881,1.00000000000000,-0.00002586003393,-0.00007787253708,0.00008595176041,0.02737629413605,-0.01455205678940,0.07650429010391,3.28528642654419,-1.74631655216217,9.18088150024414,-0.35561525821686,-1.07086718082428,1.18196880817413,-0.82177734375000,-0.28808593750000,-1.19628906250000,0
141,417536251,-0.871637,0.159093,0.108009,0.450864,1.00000000000000,-0.00002657715231,-0.00008885096759,0.00008380785584,0.02748411893845,-0.01454848051071,0.07637745141983,3.29949998855591,-1.74687957763672,9.16501235961914,-0.36547669768333,-1.22183740139008,1.15248680114746,-0.82275390625000,-0.29052734375000,-1.19482421875000,0
142,417544584,-0.871654,0.159076,0.108004,0.450837,1.00000000000000,-0.00003910530359,-0.00007707905024,0.00009712763131,0.02753520011902,-0.01464617252350,0.07637411355972,3.30530023574829,-1.75880873203278,9.16468906402588,-0.53775805234909,-1.05995535850525,1.33565425872803,-0.81982421875000,-0.28906250000000,-1.19433593750000,0
143,417552917,-0.871665,0.159077,0.107991,0.450819,1.00000000000000,-0.00006348174065,-0.00007622037083,0.00009182281792,0.02738034725189,-0.01466453075409,0.07661408185959,3.28665232658386,-1.76125800609589,9.19346618652344,-0.87297147512436,-1.04814720153809,1.26270484924316,-0.82177734375000,-0.29101562500000,-1.19335937500000,0
144,417561250,-0.871676,0.159074,0.107978,0.450803,1.00000000000000,-0.00005680043250,-0.00007623899728,0.00008756853640,0.02737367153168,-0.01466155052185,0.07645195722580,3.28594446182251,-1.76089918613434,9.17397689819336,-0.78109329938889,-1.04840350151062,1.20420217514038,-0.82275390625000,-0.29052734375000,-1.19384765625000,0
145,417569583,-0.871688,0.159056,0.107982,0.450784,1.00000000000000,-0.00003911647946,-0.00008212309331,0.00008789263666,0.02759140729904,-0.01469647884369,0.07644802331924,3.31221556663513,-1.76485860347748,9.17349433898926,-0.53791171312332,-1.12931859493256,1.20865881443024,-0.82177734375000,-0.29003906250000,-1.19726562500000,0
146,417577916,-0.871700,0.159037,0.107981,0.450768,1.00000000000000,-0.00003766361624,-0.00007894914597,0.00008458830416,0.02743285894394,-0.01450973749161,0.07660120725632,3.29207396507263,-1.74123799800873,9.19251155853271,-0.51793259382248,-1.08567214012146,1.16321933269501,-0.82226562500000,-0.29003906250000,-1.19726562500000,0
147,417586249,-0.871708,0.159028,0.107971,0.450758,1.00000000000000,-0.00005386117846,-0.00007306132466,0.00008248910308,0.02749729156494,-0.01446980237961,0.07680350542068,3.30085611343384,-1.73796856403351,9.21612548828125,-0.74067401885986,-1.00470542907715,1.13435196876526,-0.82226562500000,-0.29150390625000,-1.19531250000000,0
148,417594582,-0.871716,0.159041,0.107955,0.450742,1.00000000000000,-0.00007281918079,-0.00008070189506,0.00008792616427,0.02753895521164,-0.01458525657654,0.07680076360703,3.30570602416992,-1.75176692008972,9.21585845947266,-1.00137567520142,-1.10977506637573,1.20911979675293,-0.82275390625000,-0.29003906250000,-1.19433593750000,0
149,417602915,-0.871718,0.159088,0.107915,0.450732,1.00000000000000,-0.00011828634888,-0.00007282849401,0.00009000860155,0.02745962142944,-0.01435899734497,0.07658618688583,3.29584527015686,-1.72465372085571,9.19022655487061,-1.62661921977997,-1.00150382518768,1.23775672912598,-0.82128906250000,-0.29150390625000,-1.19726562500000,0
150,417611248,-0.871719,0.159149,0.107875,0.450716,1.00000000000000,-0.00012653600425,-0.00008227210492,0.00009494274855,0.02757853269577,-0.01456564664841,0.07644504308701,3.31010770797729,-1.74932992458344,9.17330932617188,-1.74006474018097,-1.13136804103851,1.30560886859894,-0.82177734375000,-0.28906250000000,-1.19433593750000,0
151,417619581,-0.871717,0.159217,0.107833,0.450708,1.00000000000000,-0.00013702455908,-0.00008128117770,0.00008938647807,0.02734035253525,-0.01445937156677,0.07649642229080,3.28150081634521,-1.73657917976379,9.17948722839355,-1.88429856300354,-1.11774122714996,1.22920167446136,-0.82666015625000,-0.28710937500000,-1.19531250000000,0
152,417627914,-0.871715,0.159281,0.107780,0.450701,1.00000000000000,-0.00013684201986,-0.00007117446512,0.00008795969188,0.02741080522537,-0.01455849409103,0.07632720470428,3.28989887237549,-1.74854731559753,9.15918254852295,-1.88178825378418,-0.97875833511353,1.20958089828491,-0.82226562500000,-0.28955078125000,-1.19531250000000,0
153,417636247,-0.871706,0.159368,0.107734,0.450700,1.00000000000000,-0.00015779118985,-0.00008564162999,0.00008190423250,0.02742701768875,-0.01510107517242,0.07638257741928,3.29186034202576,-1.81351470947266,9.16584014892578,-2.16987156867981,-1.17770409584045,1.12630915641785,-0.82128906250000,-0.28662109375000,-1.19531250000000,0
154,417644580,-0.871697,0.159402,0.107714,0.450709,1.00000000000000,-0.00009902659804,-0.00008437875658,0.00006282702088,0.02760207653046,-0.01493936777115,0.07601124048233,3.31331944465637,-1.79438257217407,9.12106037139893,-1.36176800727844,-1.16033768653870,0.86396807432175,-0.82128906250000,-0.29101562500000,-1.19677734375000,0
155,417652913,-0.871714,0.159307,0.107755,0.450701,1.00000000000000,0.00004503503442,-0.00007745530456,0.00006600655615,0.02757102251053,-0.01505774259567,0.07634711265564,3.30865478515625,-1.80700182914734,9.16201972961426,0.61930096149445,-1.06512951850891,0.90769171714783,-0.82226562500000,-0.28808593750000,-1.19531250000000,0
156,417661246,-0.871726,0.159215,0.107795,0.450699,1.00000000000000,0.00004250183702,-0.00007974077016,0.00005879998207,0.02746361494064,-0.01457756757736,0.07678622007370,3.29576539993286,-1.74937760829926,9.21471405029297,0.58446556329727,-1.09655821323395,0.80859011411667,-0.82421875000000,-0.29003906250000,-1.19628906250000,0
157,417669579,-0.871732,0.159183,0.107809,0.450697,1.00000000000000,-0.00002418365330,-0.00008246395737,0.00006723403931,0.02753579616547,-0.01461243629456,0.07665145397186,3.30442738533020,-1.75356233119965,9.19854164123535,-0.33256244659424,-1.13400626182556,0.92457145452499,-0.81982421875000,-0.29101562500000,-1.19335937500000,0
158,417677912,-0.871732,0.159187,0.107810,0.450694,1.00000000000000,-0.00006057601422,-0.00009028334171,0.00006979517639,0.02753037214279,-0.01482206583023,0.07655572891235,3.30503559112549,-1.78012442588806,9.18632984161377,-0.83301329612732,-1.24153470993042,0.95979100465775,-0.82275390625000,-0.28759765625000,-1.19482421875000,0
159,417686245,-0.871734,0.159160,0.107829,0.450695,1.00000000000000,-0.00002780091017,-0.00008963886648,0.00006377138197,0.02754598855972,-0.01472073793411,0.07610195875168,3.30565071105957,-1.76655912399292,9.13259983062744,-0.38230523467064,-1.23267221450806,0.87695449590683,-0.82373046875000,-0.28613281250000,-1.19628906250000,0
160,417694578,-0.871750,0.159107,0.107854,0.450677,1.00000000000000,0.00000488571823,-0.00008636619896,0.00007977895439,0.02746564149857,-0.01473301649094,0.07644712924957,3.29600858688354,-1.76803255081177,9.17402172088623,0.06718613952398,-1.18766784667969,1.09708321094513,-0.82373046875000,-0.29150390625000,-1.19726562500000,0
161,417702911,-0.871762,0.159069,0.107869,0.450664,1.00000000000000,-0.00001643132418,-0.00008194241673,0.00007859803736,0.02754217386246,-0.01463544368744,0.07675498723984,3.30519270896912,-1.75632333755493,9.21096611022949,-0.22595600783825,-1.12683427333832,1.08084392547607,-0.82275390625000,-0.29052734375000,-1.19628906250000,0
162,417711244,-0.871767,0.159064,0.107873,0.450656,1.00000000000000,-0.00005014520139,-0.00008890312165,0.00007557496428,0.02743953466415,-0.01468759775162,0.07637274265289,3.29413485527039,-1.76389122009277,9.16439151763916,-0.68957370519638,-1.22255480289459,1.03927195072174,-0.81982421875000,-0.29003906250000,-1.19384765625000,0
163,417719577,-0.871772,0.159070,0.107868,0.450643,1.00000000000000,-0.00006537418813,-0.00008571427315,0.00008342042565,0.02742058038712,-0.01474672555923,0.07648795843124,3.29162597656250,-1.77108085155487,9.17828369140625,-0.89899569749832,-1.17870330810547,1.14715921878815,-0.82031250000000,-0.28955078125000,-1.19433593750000,0
164,417727910,-0.871777,0.159074,0.107858,0.450636,1.00000000000000,-0.00006345752627,-0.00008080247790,0.00007780268788,0.02753543853760,-0.01474618911743,0.07649010419846,3.30546736717224,-1.77112007141113,9.17849731445312,-0.87263852357864,-1.11115825176239,1.06990647315979,-0.82421875000000,-0.28857421875000,-1.19531250000000,0
165,417736243,-0.871789,0.159021,0.107881,0.450627,1.00000000000000,-0.00000052805990,-0.00008124206215,0.00007274374366,0.02751195430756,-0.01485908031464,0.07620704174042,3.30156660079956,-1.78316044807434,9.14521026611328,-0.00726163526997,-1.11720323562622,1.00033831596375,-0.82421875000000,-0.28857421875000,-1.19433593750000,0
166,417744576,-0.871799,0.158955,0.107911,0.450622,1.00000000000000,0.00001557543874,-0.00008329283446,0.00006428360939,0.02749270200729,-0.01455146074295,0.07664811611176,3.29925584793091,-1.74624502658844,9.19814109802246,0.21418622136116,-1.14540445804596,0.88399839401245,-0.82080078125000,-0.29248046875000,-1.19677734375000,0
167,417752909,-0.871807,0.158906,0.107924,0.450621,1.00000000000000,-0.00000958051533,-0.00007387902588,0.00006631016731,0.02743232250214,-0.01449793577194,0.07665330171585,3.29201006889343,-1.73982179164886,9.19876384735107,-0.13174681365490,-1.01595020294189,0.91186684370041,-0.82177734375000,-0.28808593750000,-1.19433593750000,0
168,417761242,-0.871804,0.158894,0.107932,0.450628,1.00000000000000,-0.00004456844181,-0.00008818600327,0.00005678273737,0.02738052606583,-0.01452654600143,0.07656902074814,3.28579354286194,-1.74325537681580,9.18864822387695,-0.61288458108902,-1.21269309520721,0.78084993362427,-0.81982421875000,-0.28808593750000,-1.19775390625000,0
169,417769575,-0.871805,0.158877,0.107952,0.450628,1.00000000000000,-0.00003681052476,-0.00009519141167,0.00006418116391,0.02751708030701,-0.01461493968964,0.07627797126770,3.30218148231506,-1.75386273860931,9.15372180938721,-0.50620132684708,-1.30902814865112,0.88258975744247,-0.82324218750000,-0.28955078125000,-1.19384765625000,0
170,417777908,-0.871810,0.158836,0.107983,0.450626,1.00000000000000,-0.00000610854477,-0.00009535532445,0.00006215460598,0.02737051248550,-0.01460278034210,0.07642811536789,3.28459262847900,-1.75240361690521,9.17173957824707,-0.08400189131498,-1.31128239631653,0.85472142696381,-0.82275390625000,-0.28857421875000,-1.19726562500000,0
171,417786241,-0.871814,0.158798,0.108006,0.450625,1.00000000000000,-0.00001588556916,-0.00008730683476,0.00006370805204,0.02743220329285,-0.01471894979477,0.07677626609802,3.29199576377869,-1.76634454727173,9.21352005004883,-0.21845099329948,-1.20060324668884,0.87608373165131,-0.82177734375000,-0.29248046875000,-1.19726562500000,0
172,417794574,-0.871813,0.158784,0.108024,0.450628,1.00000000000000,-0.00003825780004,-0.00009645242244,0.00006028823555,0.02739578485489,-0.01489859819412,0.07657653093338,3.28762555122375,-1.78790318965912,9.18955039978027,-0.52610355615616,-1.32636904716492,0.82905590534210,-0.81835937500000,-0.28906250000000,-1.19824218750000,0
173,417802907,-0.871813,0.158734,0.108053,0.450639,1.00000000000000,-0.00000414531678,-0.00008639041334,0.00004863180220,0.02738481760025,-0.01507562398911,0.07639914751053,3.28630924224854,-1.80914711952209,9.16826343536377,-0.05700448527932,-1.18800103664398,0.66876208782196,-0.82373046875000,-0.29052734375000,-1.19482421875000,0
174,417811240,-0.871821,0.158613,0.108117,0.450650,1.00000000000000,0.00007647834718,-0.00008587073535,0.00003783032298,0.02739256620407,-0.01460587978363,0.07616192102432,3.28723907470703,-1.75277554988861,9.13979530334473,1.05169486999512,-1.18085455894470,0.52022510766983,-0.82080078125000,-0.29052734375000,-1.19580078125000,0
175,417819573,-0.871840,0.158449,0.108191,0.450655,1.00000000000000,0.00011921115220,-0.00007375050336,0.00004330463707,0.02757841348648,-0.01434844732285,0.07675111293793,3.31037902832031,-1.72056078910828,9.21044826507568,1.63933646678925,-1.01418280601501,0.59550529718399,-0.81982421875000,-0.29296875000000,-1.19628906250000,0
176,417827906,-0.871856,0.158358,0.108235,0.450645,1.00000000000000,0.00004514493048,-0.00008333567530,0.00006595999002,0.02744275331497,-0.01404160261154,0.07692521810532,3.29326176643372,-1.68505954742432,9.23139476776123,0.62081217765808,-1.14599359035492,0.90705126523972,-0.81787109375000,-0.29052734375000,-1.19531250000000,0
177,417836239,-0.871856,0.158365,0.108237,0.450643,1.00000000000000,-0.00006414111704,-0.00009122211486,0.00007140636444,0.02744483947754,-0.01410084962845,0.07660043239594,3.29473185539246,-1.69357156753540,9.19172382354736,-0.88203895092010,-1.25444424152374,0.98194730281830,-0.81982421875000,-0.29101562500000,-1.19531250000000,0
178,417844572,-0.871849,0.158418,0.108207,0.450643,1.00000000000000,-0.00011875573546,-0.00008531939238,0.00007487274706,0.02749305963516,-0.01423102617264,0.07635819911957,3.30002117156982,-1.70926582813263,9.16281509399414,-1.63307380676270,-1.17327284812927,1.02961540222168,-0.82373046875000,-0.29101562500000,-1.19531250000000,0
179,417852905,-0.871850,0.158439,0.108185,0.450639,1.00000000000000,-0.00008781161159,-0.00007608812302,0.00007831491530,0.02757889032364,-0.01437073945999,0.07651060819626,3.31045413017273,-1.72617495059967,9.18102741241455,-1.20754468441010,-1.04632878303528,1.07695066928864,-0.82324218750000,-0.29199218750000,-1.19677734375000,0
180,417861238,-0.871859,0.158440,0.108169,0.450626,1.00000000000000,-0.00006266217679,-0.00007473770529,0.00008486583829,0.02741980552673,-0.01444000005722,0.07647085189819,3.29146862030029,-1.73439252376556,9.17623615264893,-0.86170125007629,-1.02775835990906,1.16703569889069,-0.82373046875000,-0.29003906250000,-1.19677734375000,0
181,417869571,-0.871861,0.158462,0.108144,0.450621,1.00000000000000,-0.00008961651474,-0.00007481034845,0.00008033774793,0.02741032838821,-0.01468831300735,0.07676941156387,3.29018354415894,-1.76428532600403,9.21209716796875,-1.23236489295959,-1.02875721454620,1.10476756095886,-0.82275390625000,-0.29345703125000,-1.19531250000000,0
182,417877904,-0.871853,0.158517,0.108107,0.450624,1.00000000000000,-0.00012379232794,-0.00007945206016,0.00007336959243,0.02745282649994,-0.01478344202042,0.07659929990768,3.29513239860535,-1.77560544013977,9.19175052642822,-1.70233476161957,-1.09258782863617,1.00894463062286,-0.82031250000000,-0.29150390625000,-1.19580078125000,0
183,417886237,-0.871856,0.158520,0.108101,0.450619,1.00000000000000,-0.00006378535181,-0.00008230376989,0.00007507577538,0.02732503414154,-0.01458996534348,0.07637155056000,3.28026127815247,-1.75236821174622,9.16426181793213,-0.87714660167694,-1.13180339336395,1.03240728378296,-0.81933593750000,-0.29003906250000,-1.19433593750000,0
184,417894570,-0.871857,0.158501,0.108107,0.450623,1.00000000000000,-0.00003835652024,-0.00008295942098,0.00006222724915,0.02746981382370,-0.01454943418503,0.07680839300156,3.29650926589966,-1.74600183963776,9.21737480163574,-0.52746111154556,-1.14081954956055,0.85572034120560,-0.82324218750000,-0.28955078125000,-1.19384765625000,0
185,417902903,-0.871854,0.158504,0.108097,0.450630,1.00000000000000,-0.00006827618927,-0.00007729697973,0.00006300210953,0.02758878469467,-0.01445847749710,0.07683587074280,3.31078672409058,-1.73508656024933,9.22067356109619,-0.93890255689621,-1.06295228004456,0.86637586355209,-0.82177734375000,-0.28955078125000,-1.19335937500000,0
186,417911236,-0.871841,0.158560,0.108073,0.450642,1.00000000000000,-0.00012135971338,-0.00009108800441,0.00006040371954,0.02733099460602,-0.01466959714890,0.07662737369537,3.28066730499268,-1.76189017295837,9.19507980346680,-1.66888260841370,-1.25260007381439,0.83064395189285,-0.82324218750000,-0.29296875000000,-1.19726562500000,0
187,417919569,-0.871828,0.158612,0.108051,0.450653,1.00000000000000,-0.00011781509966,-0.00008929613978,0.00006227567792,0.02728343009949,-0.01491576433182,0.07631915807724,3.27496004104614,-1.79144906997681,9.15808200836182,-1.62013864517212,-1.22795903682709,0.85638630390167,-0.81933593750000,-0.28955078125000,-1.19628906250000,0
188,417927902,-0.871821,0.158627,0.108051,0.450663,1.00000000000000,-0.00007282663137,-0.00009244773537,0.00005716271698,0.02763807773590,-0.01468616724014,0.07593786716461,3.31799244880676,-1.76389598846436,9.11215019226074,-1.00147807598114,-1.27129852771759,0.78607523441315,-0.82080078125000,-0.29052734375000,-1.19775390625000,0
189,417936235,-0.871827,0.158589,0.108078,0.450658,1.00000000000000,-0.00001293700188,-0.00009248312563,0.00006787665188,0.02747255563736,-0.01458591222763,0.07638168334961,3.29683828353882,-1.75037932395935,9.16616821289062,-0.17790366709232,-1.27178514003754,0.93340843915939,-0.82080078125000,-0.29248046875000,-1.19384765625000,0
190,417944568,-0.871828,0.158574,0.108093,0.450656,1.00000000000000,-0.00003714207560,-0.00009367149323,0.00006539374590,0.02740520238876,-0.01430326700211,0.07685250043869,3.28875565528870,-1.71646058559418,9.22266864776611,-0.51076066493988,-1.28812706470490,0.89926439523697,-0.82324218750000,-0.28955078125000,-1.19482421875000,0
191,417952901,-0.871821,0.158624,0.108083,0.450656,1.00000000000000,-0.00010939594358,-0.00009938981384,0.00007266178727,0.02737069129944,-0.01444637775421,0.07677853107452,3.28548169136047,-1.73500418663025,9.21322441101074,-1.50436234474182,-1.36676275730133,0.99921125173569,-0.82080078125000,-0.29101562500000,-1.19238281250000,0
192,417961234,-0.871806,0.158705,0.108048,0.450664,1.00000000000000,-0.00014708843082,-0.00009402353317,0.00006780959666,0.02726858854294,-0.01446306705475,0.07631224393845,3.27299261093140,-1.73697042465210,9.15735626220703,-2.02269220352173,-1.29296827316284,0.93248611688614,-0.82275390625000,-0.29199218750000,-1.19531250000000,0
193,417969567,-0.871791,0.158807,0.108009,0.450667,1.00000000000000,-0.00016959290951,-0.00009848084301,0.00007595866919,0.02751475572586,-0.01487094163895,0.07628554105759,3.30241847038269,-1.78579926490784,9.15420627593994,-2.33216333389282,-1.35426318645477,1.04454851150513,-0.82421875000000,-0.28955078125000,-1.19628906250000,0
194,417977900,-0.871784,0.158876,0.107994,0.450659,1.00000000000000,-0.00012471619993,-0.00010687392205,0.00008153542876,0.02761125564575,-0.01486998796463,0.07639986276627,3.31422233581543,-1.78572273254395,9.16783809661865,-1.71503973007202,-1.46968090534210,1.12123751640320,-0.82373046875000,-0.28955078125000,-1.19433593750000,0
195,417986233,-0.871780,0.158902,0.107992,0.450659,1.00000000000000,-0.00008411798626,-0.00009629223496,0.00007010623813,0.02755284309387,-0.01506364345551,0.07636713981628,3.30753231048584,-1.80911493301392,9.16376399993896,-1.15675151348114,-1.32416617870331,0.96406853199005,-0.82324218750000,-0.28710937500000,-1.19238281250000,0
196,417994566,-0.871783,0.158877,0.108014,0.450655,1.00000000000000,-0.00002456177026,-0.00009559188038,0.00006575323641,0.02751672267914,-0.01485377550125,0.07623505592346,3.30213856697083,-1.78252422809601,9.14857196807861,-0.33776208758354,-1.31453537940979,0.90420806407928,-0.82324218750000,-0.29003906250000,-1.19580078125000,0
197,418002899,-0.871784,0.158835,0.108054,0.450659,1.00000000000000,-0.00000571366400,-0.00009982194752,0.00005501881242,0.02750235795975,-0.01472336053848,0.07665950059891,3.30041432380676,-1.76687419414520,9.19950580596924,-0.07857166230679,-1.37270534038544,0.75659334659576,-0.82031250000000,-0.29101562500000,-1.19482421875000,0
198,418011232,-0.871791,0.158802,0.108072,0.450654,1.00000000000000,-0.00001945812255,-0.00008827727288,0.00006787478924,0.02764242887497,-0.01448172330856,0.07631552219391,3.31722402572632,-1.73787617683411,9.15822792053223,-0.26757910847664,-1.21394836902618,0.93338280916214,-0.82177734375000,-0.29150390625000,-1.19482421875000,0
199,418019565,-0.871799,0.158783,0.108087,0.450641,1.00000000000000,-0.00003318395466,-0.00009140651673,0.00007933937013,0.02748137712479,-0.01450508832932,0.07660043239594,3.29922485351562,-1.74175286293030,9.19173812866211,-0.45633038878441,-1.25698006153107,1.09103834629059,-0.82324218750000,-0.29199218750000,-1.19677734375000,0
200,418027898,-0.871805,0.158776,0.108104,0.450628,1.00000000000000,-0.00004159752280,-0.00010049249977,0.00007819198072,0.02740156650543,-0.01456314325333,0.07637286186218,3.28962206840515,-1.74870741367340,9.16444015502930,-0.57202988862991,-1.38192641735077,1.07525992393494,-0.81982421875000,-0.29003906250000,-1.19091796875000,0
201,418036231,-0.871805,0.158778,0.108110,0.450624,1.00000000000000,-0.00005820486695,-0.00009161885828,0.00007034838200,0.02744317054749,-0.01445633172989,0.07624864578247,3.29458761215210,-1.73619055747986,9.14948558807373,-0.80040645599365,-1.25990009307861,0.96739834547043,-0.82226562500000,-0.28906250000000,-1.19775390625000,0
202,418044564,-0.871811,0.158773,0.108114,0.450615,1.00000000000000,-0.00005008187145,-0.00008880067617,0.00007707439363,0.02744537591934,-0.01484978199005,0.07647347450256,3.29481339454651,-1.78334665298462,9.17648792266846,-0.68870270252228,-1.22114586830139,1.05989134311676,-0.82177734375000,-0.28906250000000,-1.19726562500000,0
203,418052897,-0.871821,0.158737,0.108146,0.450600,1.00000000000000,-0.00001099426299,-0.00009853858501,0.00007679685950,0.02742630243301,-0.01462322473526,0.07643061876297,3.29274535179138,-1.75552690029144,9.17139053344727,-0.15118801593781,-1.35505700111389,1.05607485771179,-0.82421875000000,-0.29003906250000,-1.19580078125000,0
204,418061230,-0.871836,0.158678,0.108170,0.450586,1.00000000000000,0.00000902824104,-0.00008273031563,0.00007594749331,0.02752345800400,-0.01454591751099,0.07656615972519,3.30294680595398,-1.74557983875275,9.18830585479736,0.12415219098330,-1.13766896724701,1.04439473152161,-0.82080078125000,-0.29150390625000,-1.19775390625000,0
205,418069563,-0.871841,0.158651,0.108187,0.450581,1.00000000000000,-0.00002682860941,-0.00008795317262,0.00006987713277,0.02759712934494,-0.01453202962875,0.07652258872986,3.31178784370422,-1.74391317367554,9.18307685852051,-0.36893466114998,-1.20949137210846,0.96091800928116,-0.82177734375000,-0.29296875000000,-1.19531250000000,0
206,418077896,-0.871849,0.158628,0.108198,0.450572,1.00000000000000,-0.00003106240183,-0.00008718017489,0.00007438287139,0.02748376131058,-0.01462775468826,0.07655739784241,3.29818296432495,-1.75540065765381,9.18725490570068,-0.42715576291084,-1.19886147975922,1.02287876605988,-0.82226562500000,-0.29003906250000,-1.19677734375000,0
207,418086229,-0.871851,0.158616,0.108203,0.450571,1.00000000000000,-0.00004706252366,-0.00008403975517,0.00006834603846,0.02748453617096,-0.01475715637207,0.07644253969193,3.29827594757080,-1.77092945575714,9.17347145080566,-0.64718204736710,-1.15567576885223,0.93986308574677,-0.82177734375000,-0.29052734375000,-1.19433593750000,0
208,418094562,-0.871858,0.158546,0.108246,0.450573,1.00000000000000,0.00002367608249,-0.00009195972234,0.00005472265184,0.02756679058075,-0.01459509134293,0.07578444480896,3.30814743041992,-1.75148057937622,9.09449768066406,0.32558256387711,-1.26458775997162,0.75252068042755,-0.82031250000000,-0.28906250000000,-1.19628906250000,0
209,418102895,-0.871873,0.158393,0.108318,0.450580,1.00000000000000,0.00010829605162,-0.00007640663534,0.00004080310464,0.02778881788254,-0.01460981369019,0.07632297277451,3.33576536178589,-1.75192177295685,9.15902137756348,1.48923742771149,-1.05070888996124,0.56110548973083,-0.82226562500000,-0.28955078125000,-1.19580078125000,0
210,418111228,-0.871887,0.158284,0.108371,0.450578,1.00000000000000,0.00006385892630,-0.00008375849575,0.00005511194468,0.02743893861771,-0.01425176858902,0.07701802253723,3.29280400276184,-1.71028053760529,9.24253177642822,0.87815839052200,-1.15180814266205,0.75787389278412,-0.82324218750000,-0.28710937500000,-1.19482421875000,0
211,418119561,-0.871890,0.158243,0.108390,0.450582,1.00000000000000,-0.00001529697329,-0.00008224416524,0.00005944818258,0.02739644050598,-0.01438724994659,0.07669752836227,3.28770422935486,-1.72653889656067,9.20407104492188,-0.21035690605640,-1.13098371028900,0.81750392913818,-0.82373046875000,-0.29345703125000,-1.19580078125000,0
212,418127894,-0.871884,0.158266,0.108383,0.450587,1.00000000000000,-0.00008208211511,-0.00009116251022,0.00006376951933,0.02752906084061,-0.01423335075378,0.07667750120163,3.30475711822510,-1.70957648754120,9.20097923278809,-1.12875521183014,-1.25362467765808,0.87692892551422,-0.82275390625000,-0.28955078125000,-1.19287109375000,0
213,418136227,-0.871881,0.158285,0.108384,0.450587,1.00000000000000,-0.00007741432637,-0.00009526032954,0.00006884150207,0.02713316679001,-0.01450735330582,0.07652729749680,3.25724601745605,-1.74235904216766,9.18297290802002,-1.06456601619720,-1.30997598171234,0.94667649269104,-0.81835937500000,-0.28808593750000,-1.19677734375000,0
214,418144560,-0.871883,0.158278,0.108390,0.450583,1.00000000000000,-0.00004736240953,-0.00008949916810,0.00006996840239,0.02745449542999,-0.01438993215561,0.07620847225189,3.29604339599609,-1.72816658020020,9.14464092254639,-0.65130603313446,-1.23075127601624,0.96217316389084,-0.82373046875000,-0.29101562500000,-1.19628906250000,0
215,418152893,-0.871892,0.158249,0.108409,0.450571,1.00000000000000,-0.00002369936556,-0.00008973386139,0.00007671117783,0.02740412950516,-0.01468849182129,0.07636559009552,3.28862690925598,-1.76268935203552,9.16423702239990,-0.32590270042419,-1.23397839069366,1.05489647388458,-0.81982421875000,-0.29199218750000,-1.19433593750000,0
216,418161226,-0.871893,0.158251,0.108412,0.450568,1.00000000000000,-0.00005750078708,-0.00009144563228,0.00006989389658,0.02745020389557,-0.01449608802795,0.07659429311752,3.29544925689697,-1.74096655845642,9.19095802307129,-0.79072427749634,-1.25751817226410,0.96114873886108,-0.82373046875000,-0.29052734375000,-1.19531250000000,0
217,418169559,-0.871892,0.158273,0.108406,0.450564,1.00000000000000,-0.00008112844080,-0.00009078253061,0.00007560476661,0.02751982212067,-0.01449662446976,0.07639569044113,3.30352735519409,-1.74110579490662,9.16720867156982,-1.11564075946808,-1.24839937686920,1.03968179225922,-0.81884765625000,-0.29150390625000,-1.19482421875000,0
218,418177892,-0.871894,0.158295,0.108393,0.450555,1.00000000000000,-0.00008117128164,-0.00008629541844,0.00008081458509,0.02743637561798,-0.01438963413239,0.07647687196732,3.29344177246094,-1.72829020023346,9.17697620391846,-1.11622977256775,-1.18669474124908,1.11132466793060,-0.82128906250000,-0.28955078125000,-1.19433593750000,0
219,418186225,-0.871897,0.158305,0.108390,0.450546,1.00000000000000,-0.00006886292249,-0.00008883792907,0.00007920712233,0.02739804983139,-0.01468664407730,0.07656830549240,3.28896379470825,-1.76387560367584,9.18791198730469,-0.94697117805481,-1.22165822982788,1.08921980857849,-0.81933593750000,-0.29003906250000,-1.19531250000000,0
220,418194558,-0.871902,0.158314,0.108386,0.450535,1.00000000000000,-0.00006545241922,-0.00008839834481,0.00008013844490,0.02727723121643,-0.01438987255096,0.07656353712082,3.27448248863220,-1.72824358940125,9.18734359741211,-0.90007132291794,-1.21561312675476,1.10202693939209,-0.82373046875000,-0.29199218750000,-1.19433593750000,0
221,418202891,-0.871906,0.158326,0.108381,0.450524,1.00000000000000,-0.00007037725300,-0.00008864235133,0.00008279085159,0.02734017372131,-0.01461368799210,0.07672268152237,3.28196835517883,-1.75510644912720,9.20646190643311,-0.96779567003250,-1.21896874904633,1.13850164413452,-0.82031250000000,-0.29052734375000,-1.19482421875000,0
222,418211224,-0.871903,0.158362,0.108361,0.450522,1.00000000000000,-0.00009801704437,-0.00008626189083,0.00007428042591,0.02752989530563,-0.01444077491760,0.07684433460236,3.30459976196289,-1.73448002338409,9.22108745574951,-1.34788501262665,-1.18623352050781,1.02147006988525,-0.82275390625000,-0.28955078125000,-1.19433593750000,0
223,418219557,-0.871906,0.158382,0.108357,0.450511,1.00000000000000,-0.00007785391062,-0.00009243469685,0.00008264556527,0.02753323316574,-0.01458334922791,0.07633644342422,3.30509567260742,-1.75144302845001,9.16012477874756,-1.07061088085175,-1.27111911773682,1.13650357723236,-0.82226562500000,-0.29101562500000,-1.19482421875000,0
224,418227890,-0.871914,0.158381,0.108348,0.450498,1.00000000000000,-0.00005853641778,-0.00008006487042,0.00008332915604,0.02754718065262,-0.01462340354919,0.07622271776199,3.30683469772339,-1.75631892681122,9.14643859863281,-0.80496573448181,-1.10101509094238,1.14590394496918,-0.82080078125000,-0.29052734375000,-1.19335937500000,0
225,418236223,-0.871926,0.158345,0.108372,0.450481,1.00000000000000,-0.00001357216388,-0.00009134691209,0.00008131936193,0.02750736474991,-0.01454645395279,0.07647562026978,3.30238628387451,-1.74641799926758,9.17680072784424,-0.18663811683655,-1.25616049766541,1.11826622486115,-0.82226562500000,-0.29003906250000,-1.19482421875000,0
226,418244556,-0.871939,0.158319,0.108382,0.450462,1.00000000000000,-0.00002606678754,-0.00008594710380,0.00008531473577,0.02755093574524,-0.01444458961487,0.07656067609787,3.30749058723450,-1.73443317413330,9.18700790405273,-0.35845839977264,-1.18190479278564,1.17320883274078,-0.82324218750000,-0.28906250000000,-1.19580078125000,0
227,418252889,-0.871942,0.158335,0.108381,0.450452,1.00000000000000,-0.00007223617285,-0.00009254831821,0.00008085556328,0.02740842103958,-0.01438325643539,0.07668751478195,3.29018640518188,-1.72742462158203,9.20223999023438,-0.99335837364197,-1.27268159389496,1.11188840866089,-0.82373046875000,-0.29003906250000,-1.19677734375000,0
228,418261222,-0.871943,0.158377,0.108359,0.450440,1.00000000000000,-0.00010350625962,-0.00008899811655,0.00008646026254,0.02764803171158,-0.01439052820206,0.07648193836212,3.31865811347961,-1.72834408283234,9.17765808105469,-1.42337012290955,-1.22386109828949,1.18896150588989,-0.81933593750000,-0.28955078125000,-1.19726562500000,0
229,418269555,-0.871944,0.158410,0.108338,0.450431,1.00000000000000,-0.00009654182941,-0.00008384417742,0.00008308328688,0.02751803398132,-0.01485705375671,0.07642740011215,3.30309152603149,-1.78440415859222,9.17107868194580,-1.32759845256805,-1.15298616886139,1.14252281188965,-0.81982421875000,-0.29101562500000,-1.19677734375000,0
230,418277888,-0.871951,0.158406,0.108335,0.450420,1.00000000000000,-0.00005313102156,-0.00008386839181,0.00007995031774,0.02755779027939,-0.01449507474899,0.07640856504440,3.30822205543518,-1.74085712432861,9.16871547698975,-0.73063331842422,-1.15331935882568,1.09943985939026,-0.82226562500000,-0.28906250000000,-1.19677734375000,0
231,418286221,-0.871963,0.158386,0.108339,0.450403,1.00000000000000,-0.00003661494702,-0.00008074846119,0.00008627213538,0.02743560075760,-0.01466608047485,0.07667756080627,3.29355430603027,-1.76120948791504,9.20103168487549,-0.50351172685623,-1.11041545867920,1.18637454509735,-0.82128906250000,-0.29296875000000,-1.19628906250000,0
232,418294554,-0.871967,0.158386,0.108338,0.450395,1.00000000000000,-0.00005607213825,-0.00008702930063,0.00007639452815,0.02746969461441,-0.01450651884079,0.07651692628860,3.29769420623779,-1.74223220348358,9.18170547485352,-0.77107822895050,-1.19678676128387,1.05054235458374,-0.82373046875000,-0.29248046875000,-1.19677734375000,0
233,418302887,-0.871974,0.158373,0.108341,0.450384,1.00000000000000,-0.00004532467574,-0.00008386094123,0.00007945671678,0.02754294872284,-0.01469278335571,0.07646679878235,3.30650401115417,-1.76451778411865,9.17569065093994,-0.62328398227692,-1.15321683883667,1.09265196323395,-0.82324218750000,-0.29003906250000,-1.19433593750000,0
234,418311220,-0.871987,0.158348,0.108353,0.450366,1.00000000000000,-0.00002642069012,-0.00008753035218,0.00008452311158,0.02732926607132,-0.01456719636917,0.07647222280502,3.28090286254883,-1.74913251399994,9.17639255523682,-0.36332511901855,-1.20367693901062,1.16232275962830,-0.82177734375000,-0.29052734375000,-1.19531250000000,0
235,418319553,-0.871994,0.158343,0.108353,0.450355,1.00000000000000,-0.00005324091762,-0.00008426513523,0.00008093006909,0.02731698751450,-0.01451903581619,0.07667690515518,3.27931547164917,-1.74371957778931,9.20092773437500,-0.73214447498322,-1.15877509117126,1.11291289329529,-0.81933593750000,-0.28955078125000,-1.19335937500000,0
236,418327886,-0.872001,0.158340,0.108354,0.450342,1.00000000000000,-0.00005139503628,-0.00008783023804,0.00008058734238,0.02757745981216,-0.01453202962875,0.07618105411530,3.31059861183167,-1.74521613121033,9.14141941070557,-0.70676070451736,-1.20780074596405,1.10819983482361,-0.82031250000000,-0.29003906250000,-1.19531250000000,0
237,418336219,-0.872011,0.158318,0.108361,0.450329,1.00000000000000,-0.00003531482071,-0.00008230935782,0.00008098222315,0.02749776840210,-0.01446706056595,0.07642084360123,3.29986405372620,-1.73611652851105,9.17086696624756,-0.48563307523727,-1.13188016414642,1.11363005638123,-0.81982421875000,-0.29003906250000,-1.19384765625000,0
238,418344552,-0.872023,0.158293,0.108369,0.450312,1.00000000000000,-0.00002758298069,-0.00008483696729,0.00008463673294,0.02756685018539,-0.01445037126541,0.07653748989105,3.30940055847168,-1.73516523838043,9.18421840667725,-0.37930840253830,-1.16663873195648,1.16388511657715,-0.82031250000000,-0.28955078125000,-1.19433593750000,0
239,418352885,-0.872032,0.158280,0.108376,0.450297,1.00000000000000,-0.00004314351827,-0.00008671451360,0.00008255802095,0.02756875753403,-0.01459836959839,0.07678347826004,3.30958700180054,-1.75310862064362,9.21371841430664,-0.59328973293304,-1.19245791435242,1.13529968261719,-0.82373046875000,-0.28906250000000,-1.19384765625000,0
240,418361218,-0.872039,0.158282,0.108371,0.450285,1.00000000000000,-0.00005891453475,-0.00008480157703,0.00008266605437,0.02745145559311,-0.01461398601532,0.07634276151657,3.29538202285767,-1.75513195991516,9.16084384918213,-0.81016540527344,-1.16615200042725,1.13678526878357,-0.82128906250000,-0.29003906250000,-1.19189453125000,0
241,418369551,-0.872045,0.158274,0.108371,0.450275,1.00000000000000,-0.00005007255822,-0.00008278246969,0.00007860921323,0.02742856740952,-0.01460206508636,0.07613545656204,3.29274630546570,-1.75369143486023,9.13593006134033,-0.68857467174530,-1.13838624954224,1.08099746704102,-0.82177734375000,-0.29003906250000,-1.19531250000000,0
242,418377884,-0.872048,0.158254,0.108381,0.450275,1.00000000000000,-0.00003587733954,-0.00008645933121,0.00006501935422,0.02748984098434,-0.01475417613983,0.07629901170731,3.29891252517700,-1.77057182788849,9.15624713897705,-0.49336859583855,-1.18894875049591,0.89411604404449,-0.82128906250000,-0.29150390625000,-1.19433593750000,0
243,418386217,-0.872061,0.158184,0.108418,0.450264,1.00000000000000,0.00002159737051,-0.00008707586676,0.00007045269012,0.02745878696442,-0.01464813947678,0.07642030715942,3.29518604278564,-1.75784695148468,9.17080307006836,0.29699704051018,-1.19742703437805,0.96883279085159,-0.82031250000000,-0.29248046875000,-1.19482421875000,0
244,418394550,-0.872069,0.158117,0.108454,0.450264,1.00000000000000,0.00001813657582,-0.00008680950850,0.00005817599595,0.02732104063034,-0.01458233594894,0.07650619745255,3.27865576744080,-1.74995017051697,9.18111038208008,0.24940580129623,-1.19376409053802,0.80000936985016,-0.82226562500000,-0.29296875000000,-1.19531250000000,0
245,418402883,-0.872084,0.158045,0.108491,0.450252,1.00000000000000,0.00002259574831,-0.00008575525135,0.00007140822709,0.02760344743729,-0.01437723636627,0.07694065570831,3.31254601478577,-1.72533726692200,9.23324775695801,0.31072628498077,-1.17926657199860,0.98197299242020,-0.82226562500000,-0.29003906250000,-1.19677734375000,0
246,418411216,-0.872096,0.158006,0.108501,0.450240,1.00000000000000,-0.00001546647400,-0.00007950980216,0.00007815845311,0.02748692035675,-0.01449418067932,0.07669746875763,3.29856204986572,-1.73937118053436,9.20406341552734,-0.21268779039383,-1.09338200092316,1.07479894161224,-0.82177734375000,-0.29443359375000,-1.19433593750000,0
247,418419549,-0.872112,0.157986,0.108509,0.450213,1.00000000000000,-0.00003312807530,-0.00008596200496,0.00009578466415,0.02749079465866,-0.01428145170212,0.07686746120453,3.30008792877197,-1.71489167213440,9.22388935089111,-0.45556193590164,-1.18210971355438,1.31718647480011,-0.82324218750000,-0.29052734375000,-1.19580078125000,0
248,418427882,-0.872119,0.158003,0.108504,0.450196,1.00000000000000,-0.00007134955376,-0.00009172875434,0.00008804723620,0.02750045061111,-0.01448774337769,0.07673853635788,3.30115556716919,-1.73992729187012,9.20839405059814,-0.98116606473923,-1.26141142845154,1.21078491210938,-0.82421875000000,-0.29101562500000,-1.19482421875000,0
249,418436215,-0.872130,0.158010,0.108497,0.450174,1.00000000000000,-0.00006558280438,-0.00008517969400,0.00009471178055,0.02739179134369,-0.01442605257034,0.07664895057678,3.28804516792297,-1.73252356052399,9.19766998291016,-0.90186434984207,-1.17135179042816,1.30243253707886,-0.82324218750000,-0.29248046875000,-1.19482421875000,0
250,418444548,-0.872140,0.158007,0.108504,0.450153,1.00000000000000,-0.00004721898586,-0.00009402539581,0.00008846074343,0.02750140428543,-0.01451295614243,0.07625502347946,3.30141425132751,-1.74276661872864,9.15034961700439,-0.64933365583420,-1.29299366474152,1.21647119522095,-0.82226562500000,-0.29003906250000,-1.19140625000000,0
251,418452881,-0.872154,0.157992,0.108516,0.450129,1.00000000000000,-0.00003678631037,-0.00009180326015,0.00009245797992,0.02758926153183,-0.01429355144501,0.07650518417358,3.31195569038391,-1.71634197235107,9.18039226531982,-0.50586825609207,-1.26243591308594,1.27143931388855,-0.81933593750000,-0.29541015625000,-1.19335937500000,0
252,418461214,-0.872164,0.157989,0.108520,0.450109,1.00000000000000,-0.00005007255822,-0.00009115319699,0.00008814595640,0.02732467651367,-0.01446628570557,0.07654553651810,3.28018951416016,-1.73722445964813,9.18521213531494,-0.68857461214066,-1.25349652767181,1.21214234828949,-0.81933593750000,-0.29150390625000,-1.19531250000000,0
253,418469547,-0.872167,0.158013,0.108514,0.450096,1.00000000000000,-0.00008146371692,-0.00009258557111,0.00008540786803,0.02752202749252,-0.01444697380066,0.07674729824066,3.30370807647705,-1.73507332801819,9.20945167541504,-1.12025141716003,-1.27319407463074,1.17448961734772,-0.82177734375000,-0.29199218750000,-1.19433593750000,0
254,418477880,-0.872169,0.158051,0.108500,0.450083,1.00000000000000,-0.00009457301348,-0.00009388383478,0.00008481927216,0.02758777141571,-0.01452922821045,0.07634794712067,3.31151533126831,-1.74494731426239,9.16155147552490,-1.30052411556244,-1.29104697704315,1.16639542579651,-0.82421875000000,-0.29345703125000,-1.19189453125000,0
255,418486213,-0.872170,0.158069,0.108492,0.450076,1.00000000000000,-0.00007808674127,-0.00008795317262,0.00007868185639,0.02761429548264,-0.01447874307632,0.07650882005692,3.31484627723694,-1.73897361755371,9.18078899383545,-1.07381260395050,-1.20949113368988,1.08199644088745,-0.82421875000000,-0.29101562500000,-1.19628906250000,0
256,418494546,-0.872177,0.158061,0.108500,0.450063,1.00000000000000,-0.00004493910819,-0.00009164679796,0.00007968582213,0.02758580446243,-0.01465910673141,0.07661128044128,3.31167697906494,-1.76036643981934,9.19304084777832,-0.61798185110092,-1.26028442382812,1.09580266475677,-0.82470703125000,-0.29150390625000,-1.19628906250000,0
257,418502879,-0.872184,0.158029,0.108517,0.450057,1.00000000000000,-0.00002291332930,-0.00008606258780,0.00007139146328,0.02752375602722,-0.01458966732025,0.07674366235733,3.30298280715942,-1.75082957744598,9.20960712432861,-0.31509351730347,-1.18349289894104,0.98174250125885,-0.82324218750000,-0.29296875000000,-1.19531250000000,0
258,418511212,-0.872198,0.158003,0.108525,0.450038,1.00000000000000,-0.00002684351057,-0.00008446071297,0.00008596666157,0.02769130468369,-0.01453393697739,0.07654953002930,3.32431268692017,-1.74518287181854,9.18567085266113,-0.36913952231407,-1.16146457195282,1.18217372894287,-0.82177734375000,-0.29199218750000,-1.19384765625000,0
259,418519545,-0.872201,0.158010,0.108539,0.450025,1.00000000000000,-0.00005719345063,-0.00010160822421,0.00007951073349,0.02745616436005,-0.01435428857803,0.07664817571640,3.29606461524963,-1.72376275062561,9.19750022888184,-0.78649783134460,-1.39726936817169,1.09339487552643,-0.82226562500000,-0.29150390625000,-1.19433593750000,0
260,418527878,-0.872208,0.158022,0.108540,0.450007,1.00000000000000,-0.00006540212780,-0.00009593646973,0.00008771382272,0.02749943733215,-0.01427870988846,0.07629829645157,3.30108904838562,-1.71476387977600,9.15555763244629,-0.89937978982925,-1.31927394866943,1.20620000362396,-0.82177734375000,-0.29052734375000,-1.19482421875000,0
261,418536211,-0.872214,0.158042,0.108540,0.449989,1.00000000000000,-0.00007352698594,-0.00009725708514,0.00008854828775,0.02747404575348,-0.01464170217514,0.07620036602020,3.29798007011414,-1.75834012031555,9.14381885528564,-1.01110911369324,-1.33743441104889,1.21767508983612,-0.81982421875000,-0.29101562500000,-1.19580078125000,0
262,418544544,-0.872223,0.158057,0.108535,0.449967,1.00000000000000,-0.00006892066449,-0.00009149406105,0.00009389221668,0.02740830183029,-0.01434248685837,0.07647299766541,3.29004907608032,-1.72244584560394,9.17655563354492,-0.94776517152786,-1.25818407535553,1.29116249084473,-0.82177734375000,-0.29296875000000,-1.19531250000000,0
263,418552877,-0.872228,0.158068,0.108530,0.449955,1.00000000000000,-0.00006945524365,-0.00008770171553,0.00008223205805,0.02732813358307,-0.01468414068222,0.07659697532654,3.28052902221680,-1.76357126235962,9.19137001037598,-0.95511639118195,-1.20603346824646,1.13081717491150,-0.82080078125000,-0.28955078125000,-1.19677734375000,0
264,418561210,-0.872240,0.158062,0.108538,0.449932,1.00000000000000,-0.00004487577826,-0.00009389314801,0.00009132549167,0.02756243944168,-0.01438945531845,0.07651466131210,3.30871987342834,-1.72791385650635,9.18152236938477,-0.61711096763611,-1.29117524623871,1.25586605072021,-0.82177734375000,-0.28906250000000,-1.19531250000000,0
265,418569543,-0.872254,0.158047,0.108550,0.449908,1.00000000000000,-0.00003621447831,-0.00009121466428,0.00009236857295,0.02739363908768,-0.01455515623093,0.07670336961746,3.28848099708557,-1.74773383140564,9.20417594909668,-0.49800473451614,-1.25434172153473,1.27020978927612,-0.82226562500000,-0.29101562500000,-1.19335937500000,0
266,418577876,-0.872263,0.158034,0.108559,0.449891,1.00000000000000,-0.00003937538713,-0.00009140651673,0.00008330866694,0.02753478288651,-0.01432961225510,0.07656675577164,3.30553817749023,-1.72074937820435,9.18772315979004,-0.54147213697433,-1.25698006153107,1.14562225341797,-0.82226562500000,-0.29248046875000,-1.19580078125000,0
267,418586209,-0.872269,0.158042,0.108565,0.449877,1.00000000000000,-0.00006116461009,-0.00009520258754,0.00008331052959,0.02747410535812,-0.01439487934113,0.07641845941544,3.29812479019165,-1.72871577739716,9.16994762420654,-0.84110736846924,-1.30918192863464,1.14564776420593,-0.82177734375000,-0.28955078125000,-1.19580078125000,0
268,418594542,-0.872274,0.158043,0.108571,0.449865,1.00000000000000,-0.00005424674600,-0.00009465683252,0.00007929839194,0.02753061056137,-0.01436692476273,0.07633513212204,3.30500197410583,-1.72534310817719,9.15991592407227,-0.74597620964050,-1.30167710781097,1.09047496318817,-0.82275390625000,-0.29052734375000,-1.19531250000000,0
269,418602875,-0.872279,0.158049,0.108576,0.449853,1.00000000000000,-0.00006051268429,-0.00009410735220,0.00008116476238,0.02748471498489,-0.01450258493423,0.07636749744415,3.29942226409912,-1.74166250228882,9.16381740570068,-0.83214241266251,-1.29412078857422,1.11614024639130,-0.82324218750000,-0.29101562500000,-1.19384765625000,0
270,418611208,-0.872285,0.158056,0.108570,0.449840,1.00000000000000,-0.00006433855742,-0.00008621718735,0.00008333474398,0.02753859758377,-0.01433283090591,0.07631468772888,3.30580329895020,-1.72140002250671,9.15749073028564,-0.88475406169891,-1.18561887741089,1.14598083496094,-0.82177734375000,-0.29199218750000,-1.19287109375000,0
271,418619541,-0.872291,0.158073,0.108566,0.449822,1.00000000000000,-0.00007280800492,-0.00009199511260,0.00008887611330,0.02736240625381,-0.01447772979736,0.07655495405197,3.28456974029541,-1.73871886730194,9.18637180328369,-1.00122201442719,-1.26507425308228,1.22218322753906,-0.81982421875000,-0.29003906250000,-1.19384765625000,0
272,418627874,-0.872296,0.158103,0.108544,0.449809,1.00000000000000,-0.00009157229215,-0.00008299108595,0.00008805841208,0.02733474969864,-0.01462680101395,0.07658940553665,3.28108787536621,-1.75674939155579,9.19053459167480,-1.25925981998444,-1.14125490188599,1.21093857288361,-0.82519531250000,-0.28955078125000,-1.19531250000000,0
273,418636207,-0.872297,0.158138,0.108531,0.449796,1.00000000000000,-0.00009443331510,-0.00009134691209,0.00008605420589,0.02750974893570,-0.01474726200104,0.07631093263626,3.30212831497192,-1.77113020420074,9.15711116790771,-1.29860341548920,-1.25616061687469,1.18337762355804,-0.82031250000000,-0.28906250000000,-1.19482421875000,0
274,418644540,-0.872306,0.158142,0.108529,0.449778,1.00000000000000,-0.00005868170410,-0.00008924957365,0.00008829683065,0.02749216556549,-0.01490545272827,0.07633501291275,3.30021500587463,-1.79001212120056,9.15994739532471,-0.80696362257004,-1.22731876373291,1.21421718597412,-0.82226562500000,-0.28955078125000,-1.19580078125000,0
275,418652873,-0.872319,0.158119,0.108543,0.449758,1.00000000000000,-0.00002948287874,-0.00008880626410,0.00008620135486,0.02759099006653,-0.01463061571121,0.07646149396896,3.31227231025696,-1.75676774978638,9.17510890960693,-0.40543487668037,-1.22122251987457,1.18540108203888,-0.81933593750000,-0.29199218750000,-1.19433593750000,0
276,418661206,-0.872330,0.158086,0.108556,0.449745,1.00000000000000,-0.00001990888268,-0.00008462648839,0.00007849745452,0.02755969762802,-0.01427143812180,0.07678872346878,3.30729579925537,-1.71264100074768,9.21501445770264,-0.27377772331238,-1.16374433040619,1.07946062088013,-0.82226562500000,-0.29150390625000,-1.19580078125000,0
277,418669539,-0.872334,0.158097,0.108551,0.449735,1.00000000000000,-0.00006932299584,-0.00008789170533,0.00008113309741,0.02764976024628,-0.01439291238785,0.07674556970596,3.31914710998535,-1.72863376140594,9.20919418334961,-0.95329785346985,-1.20864617824554,1.11570489406586,-0.82128906250000,-0.29199218750000,-1.19921875000000,0
278,418677872,-0.872342,0.158127,0.108538,0.449711,1.00000000000000,-0.00008657481521,-0.00009203609079,0.00009685195982,0.02737361192703,-0.01447868347168,0.07637512683868,3.28575849533081,-1.73881852626801,9.16484928131104,-1.19053673744202,-1.26563775539398,1.33186328411102,-0.82128906250000,-0.28906250000000,-1.19335937500000,0
279,418686205,-0.872348,0.158147,0.108529,0.449695,1.00000000000000,-0.00007805321366,-0.00008784700185,0.00008883699775,0.02749168872833,-0.01453989744186,0.07631444931030,3.30002593994141,-1.74624168872833,9.15751361846924,-1.07335150241852,-1.20803129673004,1.22164535522461,-0.82177734375000,-0.29101562500000,-1.19482421875000,0
280,418694538,-0.872357,0.158134,0.108537,0.449680,1.00000000000000,-0.00004004221410,-0.00009067635983,0.00008186139166,0.02746182680130,-0.01458692550659,0.07630687952042,3.29678893089294,-1.75164914131165,9.15652465820312,-0.55064207315445,-1.24693942070007,1.12572014331818,-0.82470703125000,-0.29248046875000,-1.19677734375000,0
281,418702871,-0.872368,0.158112,0.108545,0.449665,1.00000000000000,-0.00003399793059,-0.00008320342749,0.00008250772953,0.02758568525314,-0.01447999477386,0.07639676332474,3.31041479110718,-1.73766851425171,9.16797733306885,-0.46752384305000,-1.14417505264282,1.13460814952850,-0.82275390625000,-0.29101562500000,-1.19335937500000,0
282,418711204,-0.872381,0.158108,0.108542,0.449641,1.00000000000000,-0.00005024578422,-0.00008490029722,0.00009430013597,0.02749198675156,-0.01452791690826,0.07696235179901,3.30016183853149,-1.74465990066528,9.23526287078857,-0.69095683097839,-1.16750967502594,1.29677188396454,-0.81982421875000,-0.29003906250000,-1.19482421875000,0
283,418719537,-0.872387,0.158119,0.108546,0.449624,1.00000000000000,-0.00006436090916,-0.00009647291154,0.00008686631918,0.02743458747864,-0.01434463262558,0.07666200399399,3.29332947731018,-1.72267115116119,9.19919967651367,-0.88506150245667,-1.32665097713470,1.19454550743103,-0.82275390625000,-0.29003906250000,-1.19677734375000,0
284,418727870,-0.872393,0.158140,0.108538,0.449608,1.00000000000000,-0.00007657986134,-0.00009140651673,0.00008806400001,0.02746963500977,-0.01454651355743,0.07626038789749,3.29741358757019,-1.74699556827545,9.15102195739746,-1.05309069156647,-1.25698006153107,1.21101534366608,-0.82275390625000,-0.29150390625000,-1.19677734375000,0
285,418736203,-0.872398,0.158155,0.108532,0.449594,1.00000000000000,-0.00007421802729,-0.00008886773139,0.00008555501699,0.02724993228912,-0.01456999778748,0.07639908790588,3.27107906341553,-1.74985027313232,9.16765213012695,-1.02061200141907,-1.22206795215607,1.17651295661926,-0.82421875000000,-0.29199218750000,-1.19824218750000,0
286,418744536,-0.872408,0.158172,0.108524,0.449571,1.00000000000000,-0.00007146503776,-0.00009087566286,0.00009503215551,0.02746844291687,-0.01457351446152,0.07646101713181,3.29723286628723,-1.75018107891083,9.17512416839600,-0.98275423049927,-1.24968016147614,1.30683839321136,-0.82373046875000,-0.29150390625000,-1.19287109375000,0
287,418752869,-0.872422,0.158174,0.108526,0.449543,1.00000000000000,-0.00005584117025,-0.00009063351899,0.00009960308671,0.02747213840485,-0.01453334093094,0.07645928859711,3.29771065711975,-1.74524950981140,9.17492485046387,-0.76790189743042,-1.24635004997253,1.36969554424286,-0.82177734375000,-0.28906250000000,-1.19628906250000,0
288,418761202,-0.872428,0.158205,0.108521,0.449521,1.00000000000000,-0.00008296687156,-0.00009954255074,0.00009276345372,0.02740746736526,-0.01463603973389,0.07628101110458,3.28990530967712,-1.75764417648315,9.15353202819824,-1.14092206954956,-1.36886310577393,1.27564013004303,-0.82275390625000,-0.28955078125000,-1.19824218750000,0
289,418769535,-0.872433,0.158227,0.108533,0.449501,1.00000000000000,-0.00007117073983,-0.00010825786740,0.00008871220052,0.02757573127747,-0.01468640565872,0.07626605033875,3.31022882461548,-1.76358115673065,9.15170669555664,-0.97870707511902,-1.48871195316315,1.21992909908295,-0.82177734375000,-0.29199218750000,-1.19482421875000,0
290,418777868,-0.872443,0.158237,0.108529,0.449478,1.00000000000000,-0.00006332341582,-0.00009138602763,0.00009398907423,0.02748042345047,-0.01460850238800,0.07625234127045,3.29872679710388,-1.75434076786041,9.15006637573242,-0.87079435586929,-1.25669860839844,1.29249429702759,-0.82177734375000,-0.29199218750000,-1.19628906250000,0
291,418786201,-0.872457,0.158233,0.108540,0.449451,1.00000000000000,-0.00004676636308,-0.00009582657367,0.00009598210454,0.02751237154007,-0.01457589864731,0.07638412714005,3.30264496803284,-1.75025737285614,9.16588401794434,-0.64310944080353,-1.31776285171509,1.31990158557892,-0.82324218750000,-0.29345703125000,-1.19384765625000,0
292,418794534,-0.872473,0.158223,0.108537,0.449424,1.00000000000000,-0.00004457402974,-0.00008285883814,0.00009816512465,0.02755808830261,-0.01458197832108,0.07653146982193,3.30805253982544,-1.75109040737152,9.18357563018799,-0.61296141147614,-1.13943636417389,1.34992134571075,-0.82226562500000,-0.29248046875000,-1.19580078125000,0
293,418802867,-0.872484,0.158231,0.108540,0.449400,1.00000000000000,-0.00006054621190,-0.00009386707097,0.00009420886636,0.02766269445419,-0.01462942361832,0.07650315761566,3.32062792778015,-1.75681340694427,9.18016147613525,-0.83260351419449,-1.29081654548645,1.29551661014557,-0.82226562500000,-0.29199218750000,-1.19384765625000,0
294,418811200,-0.872491,0.158258,0.108538,0.449375,1.00000000000000,-0.00007864367217,-0.00010092649609,0.00009542331100,0.02755051851273,-0.01473206281662,0.07651644945145,3.30708050727844,-1.76913237571716,9.18178844451904,-1.08147132396698,-1.38789451122284,1.31221723556519,-0.82324218750000,-0.29003906250000,-1.19433593750000,0
295,418819533,-0.872502,0.158262,0.108536,0.449354,1.00000000000000,-0.00005969498307,-0.00008749682456,0.00009209290147,0.02757835388184,-0.01474541425705,0.07640069723129,3.31050133705139,-1.77080976963043,9.16785144805908,-0.82089787721634,-1.20321595668793,1.26641917228699,-0.82324218750000,-0.29150390625000,-1.19628906250000,0
296,418827866,-0.872514,0.158223,0.108553,0.449341,1.00000000000000,-0.00001272838563,-0.00008567329496,0.00007791072130,0.02758252620697,-0.01450103521347,0.07627332210541,3.31003499031067,-1.74019420146942,9.15316486358643,-0.17503489553928,-1.17813956737518,1.07139217853546,-0.82128906250000,-0.28857421875000,-1.19482421875000,0
297,418836199,-0.872530,0.158179,0.108587,0.449317,1.00000000000000,-0.00000056903809,-0.00009729806334,0.00008673220873,0.02739560604095,-0.01452863216400,0.07648348808289,3.28890538215637,-1.74401462078094,9.17782306671143,-0.00782514922321,-1.33799815177917,1.19270145893097,-0.82568359375000,-0.28955078125000,-1.19335937500000,0
298,418844532,-0.872548,0.158156,0.108604,0.449285,1.00000000000000,-0.00002403650433,-0.00009481515735,0.00009813718498,0.02734410762787,-0.01441854238510,0.07670241594315,3.28251504898071,-1.73113775253296,9.20411014556885,-0.33053892850876,-1.30385422706604,1.34953725337982,-0.82470703125000,-0.29492187500000,-1.19384765625000,0
299,418852865,-0.872555,0.158174,0.108598,0.449267,1.00000000000000,-0.00007514003664,-0.00009090360254,0.00008963793516,0.02764171361923,-0.01451945304871,0.07657343149185,3.31806015968323,-1.74374556541443,9.18859100341797,-1.03329098224640,-1.25006437301636,1.23265945911407,-0.82031250000000,-0.29150390625000,-1.19677734375000,0
300,418861198,-0.872557,0.158209,0.108591,0.449253,1.00000000000000,-0.00008886214346,-0.00009868200868,0.00008613057435,0.02756279706955,-0.01453429460526,0.07629889249802,3.30856370925903,-1.74549186229706,9.15566062927246,-1.22199106216431,-1.35702919960022,1.18442785739899,-0.82421875000000,-0.29003906250000,-1.19531250000000,0
301,418869531,-0.872566,0.158200,0.108602,0.449236,1.00000000000000,-0.00004411581904,-0.00009269546717,0.00008480250835,0.02770537137985,-0.01461148262024,0.07617515325546,3.32595181465149,-1.75459980964661,9.14073467254639,-0.60666036605835,-1.27470517158508,1.16616487503052,-0.82128906250000,-0.29248046875000,-1.19775390625000,0
302,418877864,-0.872583,0.158154,0.108620,0.449214,1.00000000000000,-0.00000440422446,-0.00008388143033,0.00008679181337,0.02758944034576,-0.01456069946289,0.07638204097748,3.31086492538452,-1.74735367298126,9.16621112823486,-0.06056485697627,-1.15349853038788,1.19352066516876,-0.82568359375000,-0.29150390625000,-1.19531250000000,0
303,418886197,-0.872600,0.158112,0.108649,0.449189,1.00000000000000,-0.00000408198684,-0.00009393785149,0.00008769333363,0.02761542797089,-0.01439470052719,0.07650470733643,3.31526541709900,-1.72802484035492,9.18035697937012,-0.05613359808922,-1.29178988933563,1.20591819286346,-0.82373046875000,-0.29101562500000,-1.19531250000000,0
304,418894530,-0.872614,0.158104,0.108657,0.449164,1.00000000000000,-0.00004289578646,-0.00009306799620,0.00009402073920,0.02760457992554,-0.01437914371490,0.07668048143387,3.31375098228455,-1.72665476799011,9.20143604278564,-0.58988296985626,-1.27982807159424,1.29292964935303,-0.82031250000000,-0.29101562500000,-1.19482421875000,0
305,418902863,-0.872623,0.158112,0.108659,0.449142,1.00000000000000,-0.00006205867976,-0.00009322259575,0.00009270198643,0.02764254808426,-0.01429885625839,0.07635307312012,3.31821823120117,-1.71716678142548,9.16214847564697,-0.85340225696564,-1.28195393085480,1.27479481697083,-0.82373046875000,-0.29199218750000,-1.19384765625000,0
306,418911196,-0.872632,0.158124,0.108655,0.449121,1.00000000000000,-0.00006526988000,-0.00009157601744,0.00009174458683,0.02752244472504,-0.01444619894028,0.07643508911133,3.30378866195679,-1.73488891124725,9.17198848724365,-0.89756125211716,-1.25931107997894,1.26162934303284,-0.82324218750000,-0.28808593750000,-1.19433593750000,0
307,418919529,-0.872640,0.158141,0.108644,0.449103,1.00000000000000,-0.00007660780102,-0.00008590798825,0.00009091384709,0.02750080823898,-0.01462787389755,0.07657057046890,3.30110120773315,-1.75680577754974,9.18825626373291,-1.05347502231598,-1.18136703968048,1.25020515918732,-0.82128906250000,-0.29101562500000,-1.19726562500000,0
308,418927862,-0.872649,0.158144,0.108635,0.449087,1.00000000000000,-0.00006099510938,-0.00008190330118,0.00008702091873,0.02755999565125,-0.01450008153915,0.07650023698807,3.30832552909851,-1.74148297309875,9.17977046966553,-0.83877664804459,-1.12629640102386,1.19667160511017,-0.81982421875000,-0.29052734375000,-1.19726562500000,0
309,418936195,-0.872662,0.158139,0.108633,0.449063,1.00000000000000,-0.00005199480802,-0.00008341390640,0.00009472481906,0.02755755186081,-0.01453405618668,0.07629936933517,3.30799579620361,-1.74541878700256,9.15570354461670,-0.71500861644745,-1.14706957340240,1.30261182785034,-0.81982421875000,-0.29052734375000,-1.19580078125000,0
310,418944528,-0.872675,0.158128,0.108639,0.449040,1.00000000000000,-0.00004067551345,-0.00009036343545,0.00009102933109,0.02731686830521,-0.01441758871078,0.07650297880173,3.27926135063171,-1.73128545284271,9.18012046813965,-0.55935090780258,-1.24263620376587,1.25179326534271,-0.82128906250000,-0.29150390625000,-1.19433593750000,0
311,418952861,-0.872680,0.158130,0.108639,0.449030,1.00000000000000,-0.00005936715752,-0.00008740555495,0.00007953122258,0.02747339010239,-0.01451015472412,0.07646006345749,3.29806876182556,-1.74266326427460,9.17490673065186,-0.81638979911804,-1.20196092128754,1.09367668628693,-0.81933593750000,-0.29003906250000,-1.19189453125000,0
312,418961194,-0.872682,0.158163,0.108625,0.449017,1.00000000000000,-0.00009081047028,-0.00009099114686,0.00008576922119,0.02749806642532,-0.01440948247910,0.07644456624985,3.30075621604919,-1.73059976100922,9.17314434051514,-1.24878370761871,-1.25126826763153,1.17945873737335,-0.82031250000000,-0.29003906250000,-1.19580078125000,0
313,418969527,-0.872687,0.158192,0.108614,0.449001,1.00000000000000,-0.00008751545101,-0.00009185727686,0.00008936598897,0.02753996849060,-0.01444619894028,0.07640808820724,3.30577850341797,-1.73497176170349,9.16877269744873,-1.20347201824188,-1.26317882537842,1.22891962528229,-0.82080078125000,-0.28955078125000,-1.19384765625000,0
314,418977860,-0.872689,0.158212,0.108598,0.448993,1.00000000000000,-0.00008092913777,-0.00008312892169,0.00008017010987,0.02734452486038,-0.01438146829605,0.07612913846970,3.28240466117859,-1.72734749317169,9.13524341583252,-1.11290001869202,-1.14315044879913,1.10246229171753,-0.82421875000000,-0.29052734375000,-1.19580078125000,0
315,418986193,-0.872691,0.158239,0.108577,0.448985,1.00000000000000,-0.00009164121002,-0.00008030887693,0.00008250400424,0.02728217840195,-0.01449745893478,0.07649475336075,3.27480936050415,-1.74129402637482,9.17915534973145,-1.26020753383636,-1.10437059402466,1.13455700874329,-0.82568359375000,-0.29248046875000,-1.19677734375000,0
316,418994526,-0.872690,0.158278,0.108555,0.448978,1.00000000000000,-0.00010064151138,-0.00008595269173,0.00008085370064,0.02740210294724,-0.01442056894302,0.07683461904526,3.28919219970703,-1.73201656341553,9.21995735168457,-1.38397550582886,-1.18198168277740,1.11186277866364,-0.82080078125000,-0.28857421875000,-1.19482421875000,0
317,419002859,-0.872691,0.158317,0.108529,0.448969,1.00000000000000,-0.00010407064110,-0.00008195359260,0.00008541345596,0.02754813432693,-0.01466888189316,0.07650864124298,3.30663037300110,-1.76182115077972,9.18085861206055,-1.43113124370575,-1.12698781490326,1.17456626892090,-0.82080078125000,-0.29345703125000,-1.19677734375000,0
318,419011192,-0.872687,0.158352,0.108501,0.448971,1.00000000000000,-0.00010147783905,-0.00007933657616,0.00007250718772,0.02743560075760,-0.01485562324524,0.07635462284088,3.29321813583374,-1.78433990478516,9.16231822967529,-1.39547634124756,-1.09099984169006,0.99708533287048,-0.82470703125000,-0.28955078125000,-1.19433593750000,0
319,419019525,-0.872689,0.158336,0.108509,0.448970,1.00000000000000,-0.00004250649363,-0.00008507911116,0.00006703659892,0.02740275859833,-0.01479107141495,0.07615262269974,3.28846168518066,-1.77499961853027,9.13867855072021,-0.58452969789505,-1.16996860504150,0.92185622453690,-0.82128906250000,-0.29101562500000,-1.19726562500000,0
320,419027858,-0.872700,0.158295,0.108527,0.448959,1.00000000000000,-0.00001003872603,-0.00008496735245,0.00007414445281,0.02745223045349,-0.01451343297958,0.07641798257828,3.29439926147461,-1.74168145656586,9.17052364349365,-0.13804790377617,-1.16843163967133,1.01960003376007,-0.82324218750000,-0.29150390625000,-1.19628906250000,0
321,419036191,-0.872709,0.158263,0.108542,0.448950,1.00000000000000,-0.00002282764763,-0.00008420180529,0.00007496774197,0.02742499113083,-0.01433217525482,0.07698065042496,3.29113006591797,-1.71993017196655,9.23804759979248,-0.31391525268555,-1.15790438652039,1.03092181682587,-0.82226562500000,-0.29199218750000,-1.19433593750000,0
322,419044524,-0.872712,0.158277,0.108530,0.448942,1.00000000000000,-0.00007350277156,-0.00008455198258,0.00007900036871,0.02764678001404,-0.01443141698837,0.07674813270569,3.31876397132874,-1.73332846164703,9.20949745178223,-1.01077616214752,-1.16271960735321,1.08637654781342,-0.82031250000000,-0.29101562500000,-1.19580078125000,0
323,419052857,-0.872711,0.158319,0.108521,0.448932,1.00000000000000,-0.00010036025196,-0.00009764079005,0.00008250214159,0.02755159139633,-0.01472944021225,0.07654088735580,3.30717039108276,-1.76895165443420,9.18470764160156,-1.38010787963867,-1.34271109104156,1.13453149795532,-0.82568359375000,-0.28808593750000,-1.19335937500000,0
324,419061190,-0.872712,0.158348,0.108507,0.448922,1.00000000000000,-0.00008729193360,-0.00009008403867,0.00008205510676,0.02744692564011,-0.01474052667618,0.07608956098557,3.29466080665588,-1.77034974098206,9.13051319122314,-1.20039844512939,-1.23879408836365,1.12838399410248,-0.82031250000000,-0.28808593750000,-1.19482421875000,0
325,419069523,-0.872723,0.158311,0.108531,0.448909,1.00000000000000,-0.00001419987530,-0.00009098555893,0.00007691234350,0.02747768163681,-0.01460009813309,0.07634145021439,3.29745340347290,-1.75208175182343,9.16133975982666,-0.19527012109756,-1.25119137763977,1.05766296386719,-0.82177734375000,-0.28955078125000,-1.19384765625000,0
326,419077856,-0.872739,0.158264,0.108554,0.448889,1.00000000000000,-0.00000136811286,-0.00008668098599,0.00008278526366,0.02753537893295,-0.01439774036407,0.07649517059326,3.30437731742859,-1.72779786586761,9.17978668212891,-0.01881365478039,-1.19199681282043,1.13842463493347,-0.82519531250000,-0.28955078125000,-1.19531250000000,0
327,419086189,-0.872748,0.158252,0.108576,0.448870,1.00000000000000,-0.00003550481051,-0.00010184478015,0.00008490309119,0.02746295928955,-0.01443785429001,0.07661789655685,3.29693555831909,-1.73357057571411,9.19388580322266,-0.48824578523636,-1.40052247047424,1.16754806041718,-0.82128906250000,-0.29003906250000,-1.19677734375000,0
328,419094522,-0.872751,0.158254,0.108587,0.448861,1.00000000000000,-0.00005346443504,-0.00009870249778,0.00007483735681,0.02761542797089,-0.01453560590744,0.07637852430344,3.31525087356567,-1.74555110931396,9.16510009765625,-0.73521816730499,-1.35731112957001,1.02912878990173,-0.82275390625000,-0.29296875000000,-1.19726562500000,0
329,419102855,-0.872767,0.158204,0.108609,0.448842,1.00000000000000,-0.00000184495002,-0.00008375290781,0.00008367560804,0.02744239568710,-0.01476776599884,0.07619297504425,3.29321885108948,-1.77220273017883,9.14352226257324,-0.02537089772522,-1.15173125267029,1.15066826343536,-0.82177734375000,-0.28906250000000,-1.19628906250000,0
330,419111188,-0.872785,0.158134,0.108645,0.448823,1.00000000000000,0.00002514384687,-0.00008885096759,0.00007904320955,0.02723479270935,-0.01446741819382,0.07641917467117,3.26830554008484,-1.73615944385529,9.17066669464111,0.34576654434204,-1.22183728218079,1.08696544170380,-0.82128906250000,-0.29199218750000,-1.19531250000000,0
331,419119521,-0.872796,0.158094,0.108668,0.448811,1.00000000000000,-0.00001126620919,-0.00008746143430,0.00007549300790,0.02746880054474,-0.01443964242935,0.07665562629700,3.29638791084290,-1.73282587528229,9.19904232025146,-0.15492768585682,-1.20272922515869,1.03814494609833,-0.82080078125000,-0.28955078125000,-1.19384765625000,0
332,419127854,-0.872804,0.158079,0.108677,0.448799,1.00000000000000,-0.00003855209798,-0.00008986052126,0.00007884576917,0.02757018804550,-0.01444166898727,0.07630884647369,3.30985069274902,-1.73422920703888,9.15673923492432,-0.53015059232712,-1.23572027683258,1.08425045013428,-0.82519531250000,-0.29150390625000,-1.19677734375000,0
333,419136187,-0.872808,0.158078,0.108686,0.448787,1.00000000000000,-0.00005230773240,-0.00009412225336,0.00007881410420,0.02742099761963,-0.01456135511398,0.07654005289078,3.29186725616455,-1.74867069721222,9.18450164794922,-0.71931183338165,-1.29432582855225,1.08381521701813,-0.82080078125000,-0.29248046875000,-1.19335937500000,0
334,419144520,-0.872818,0.158054,0.108699,0.448774,1.00000000000000,-0.00002789963037,-0.00008873175830,0.00007912889123,0.02751165628433,-0.01457107067108,0.07639724016190,3.30287957191467,-1.74963176250458,9.16735172271729,-0.38366284966469,-1.22019827365875,1.08814406394958,-0.82275390625000,-0.29199218750000,-1.19482421875000,0
335,419152853,-0.872826,0.158022,0.108722,0.448763,1.00000000000000,-0.00001879502088,-0.00009253527969,0.00007386319339,0.02752059698105,-0.01470160484314,0.07636910676956,3.30260396003723,-1.76426267623901,9.16465950012207,-0.25846043229103,-1.27250230312347,1.01573252677917,-0.82177734375000,-0.29052734375000,-1.19384765625000,0
336,419161186,-0.872841,0.157974,0.108745,0.448747,1.00000000000000,-0.00000154320151,-0.00008682999760,0.00007917173207,0.02732586860657,-0.01451897621155,0.07648581266403,3.27923512458801,-1.74234676361084,9.17866420745850,-0.02122139371932,-1.19404578208923,1.08873307704926,-0.82226562500000,-0.29003906250000,-1.19238281250000,0
337,419169519,-0.872841,0.157952,0.108766,0.448749,1.00000000000000,-0.00003091711551,-0.00009295623749,0.00006126053631,0.02747875452042,-0.01463323831558,0.07655388116837,3.29758167266846,-1.75605893135071,9.18683147430420,-0.42515784502029,-1.27829110622406,0.84242653846741,-0.82617187500000,-0.29248046875000,-1.19433593750000,0
338,419177852,-0.872845,0.157927,0.108779,0.448747,1.00000000000000,-0.00002914015204,-0.00008727516979,0.00006579607725,0.02746999263763,-0.01439410448074,0.07673180103302,3.29653072357178,-1.72736155986786,9.20818424224854,-0.40072190761566,-1.20016777515411,0.90479719638824,-0.82275390625000,-0.29101562500000,-1.19384765625000,0
339,419186185,-0.872848,0.157891,0.108802,0.448747,1.00000000000000,-0.00001767184585,-0.00008979160339,0.00006266124547,0.02758163213730,-0.01454555988312,0.07634329795837,3.30992770195007,-1.74553740024567,9.16156196594238,-0.24301506578922,-1.23477256298065,0.86168843507767,-0.82177734375000,-0.29394531250000,-1.19287109375000,0
340,419194518,-0.872856,0.157839,0.108833,0.448742,1.00000000000000,0.00000396184623,-0.00009088870138,0.00006523914635,0.02752608060837,-0.01444315910339,0.07636767625809,3.30326175689697,-1.73324787616730,9.16448688507080,0.05448147654533,-1.24985933303833,0.89713853597641,-0.82275390625000,-0.29248046875000,-1.19531250000000,0
341,419202851,-0.872864,0.157800,0.108860,0.448734,1.00000000000000,-0.00001192186028,-0.00009186286479,0.00007024593651,0.02751213312149,-0.01444262266159,0.07650190591812,3.30158782005310,-1.73318386077881,9.18059539794922,-0.16394390165806,-1.26325571537018,0.96598970890045,-0.81835937500000,-0.29248046875000,-1.19775390625000,0
342,419211184,-0.872872,0.157792,0.108864,0.448722,1.00000000000000,-0.00004565436393,-0.00008823256940,0.00008015520871,0.02764058113098,-0.01444405317307,0.07647114992142,3.31822872161865,-1.73460841178894,9.17622470855713,-0.62781763076782,-1.21333348751068,1.10225749015808,-0.82177734375000,-0.29199218750000,-1.19580078125000,0
343,419219517,-0.872876,0.157804,0.108863,0.448708,1.00000000000000,-0.00006887037307,-0.00009127985686,0.00008353218436,0.02754175662994,-0.01440650224686,0.07658392190933,3.30617475509644,-1.73020040988922,9.18981170654297,-0.94707363843918,-1.25523841381073,1.14869594573975,-0.82080078125000,-0.29199218750000,-1.19531250000000,0
344,419227850,-0.872885,0.157803,0.108849,0.448695,1.00000000000000,-0.00006038974971,-0.00007585901767,0.00008460320532,0.02762961387634,-0.01448696851730,0.07645720243454,3.31667375564575,-1.74000787734985,9.17458915710449,-0.83045190572739,-1.04317820072174,1.16342413425446,-0.82080078125000,-0.29296875000000,-1.19726562500000,0
345,419236183,-0.872898,0.157793,0.108847,0.448674,1.00000000000000,-0.00004765670747,-0.00008158292621,0.00009229592979,0.02746433019638,-0.01456725597382,0.07669496536255,3.29685831069946,-1.74940955638885,9.20316123962402,-0.65535295009613,-1.12189054489136,1.26921081542969,-0.82324218750000,-0.29394531250000,-1.19384765625000,0
346,419244516,-0.872903,0.157794,0.108836,0.448667,1.00000000000000,-0.00006137136370,-0.00007797125727,0.00007735192776,0.02759295701981,-0.01446932554245,0.07672005891800,3.31238579750061,-1.73793435096741,9.20608901977539,-0.84395068883896,-1.07222485542297,1.06370806694031,-0.81982421875000,-0.28906250000000,-1.19580078125000,0
347,419252849,-0.872908,0.157802,0.108827,0.448657,1.00000000000000,-0.00006892811507,-0.00008221995085,0.00008204579353,0.02752846479416,-0.01437091827393,0.07637447118759,3.30454730987549,-1.72605407238007,9.16466426849365,-0.94786751270294,-1.13065087795258,1.12825596332550,-0.82177734375000,-0.29296875000000,-1.19531250000000,0
348,419261182,-0.872912,0.157831,0.108818,0.448641,1.00000000000000,-0.00008469168097,-0.00009557884187,0.00008774362504,0.02750152349472,-0.01454746723175,0.07657432556152,3.30121445655823,-1.74709177017212,9.18871116638184,-1.16464078426361,-1.31435596942902,1.20660972595215,-0.82275390625000,-0.29199218750000,-1.19433593750000,0
349,419269515,-0.872909,0.157867,0.108798,0.448639,1.00000000000000,-0.00010007526726,-0.00008479412645,0.00007598288357,0.02747148275375,-0.01467114686966,0.07642078399658,3.29754447937012,-1.76212322711945,9.17026901245117,-1.37618875503540,-1.16604971885681,1.04488146305084,-0.82275390625000,-0.29345703125000,-1.19580078125000,0
350,419277848,-0.872907,0.157870,0.108805,0.448641,1.00000000000000,-0.00005756225437,-0.00009353924543,0.00006398558617,0.02745693922043,-0.01500016450882,0.07622033357620,3.29632997512817,-1.80145180225372,9.14604473114014,-0.79156959056854,-1.28630852699280,0.87990015745163,-0.82275390625000,-0.29248046875000,-1.19482421875000,0
351,419286181,-0.872919,0.157783,0.108847,0.448638,1.00000000000000,0.00003760121763,-0.00008287001401,0.00006010569632,0.02747654914856,-0.01470077037811,0.07624232769012,3.29731750488281,-1.76416289806366,9.14944458007812,0.51707452535629,-1.13959002494812,0.82654565572739,-0.82275390625000,-0.29101562500000,-1.19238281250000,0
352,419294514,-0.872939,0.157663,0.108903,0.448627,1.00000000000000,0.00007587857544,-0.00008226651698,0.00006377324462,0.02754563093185,-0.01441174745560,0.07669603824615,3.30677008628845,-1.72860348224640,9.20363903045654,1.04344689846039,-1.13129103183746,0.87698012590408,-0.82373046875000,-0.29052734375000,-1.19628906250000,0
353,419302847,-0.872949,0.157582,0.108939,0.448626,1.00000000000000,0.00002926588058,-0.00007893238217,0.00005903840065,0.02731883525848,-0.01417917013168,0.07716995477676,3.27839136123657,-1.70156812667847,9.26076412200928,0.40245085954666,-1.08544158935547,0.81186878681183,-0.82666015625000,-0.29150390625000,-1.19433593750000,0
354,419311180,-0.872949,0.157598,0.108934,0.448622,1.00000000000000,-0.00007313583046,-0.00009127426893,0.00007314048707,0.02765214443207,-0.01434034109116,0.07678812742233,3.31950974464417,-1.72234547138214,9.21427154541016,-1.00573027133942,-1.25516152381897,1.00579416751862,-0.82080078125000,-0.29150390625000,-1.19433593750000,0
355,419319513,-0.872952,0.157618,0.108919,0.448613,1.00000000000000,-0.00008211564273,-0.00008228886873,0.00008232332766,0.02757477760315,-0.01430159807205,0.07651060819626,3.31000709533691,-1.71776795387268,9.18103313446045,-1.12921643257141,-1.13159859180450,1.13207232952118,-0.82470703125000,-0.29248046875000,-1.19531250000000,0
356,419327846,-0.872965,0.157592,0.108926,0.448595,1.00000000000000,-0.00002873223275,-0.00008293334395,0.00008606538177,0.02750903367996,-0.01440900564194,0.07628941535950,3.30242013931274,-1.73022866249084,9.15445709228516,-0.39511236548424,-1.14046096801758,1.18353128433228,-0.82421875000000,-0.29101562500000,-1.19628906250000,0
357,419336179,-0.872980,0.157546,0.108949,0.448577,1.00000000000000,-0.00000422913581,-0.00008645001799,0.00008123368025,0.02761322259903,-0.01450169086456,0.07636183500290,3.31371903419495,-1.74027240276337,9.16378593444824,-0.05815711989999,-1.18882060050964,1.11708796024323,-0.82080078125000,-0.29199218750000,-1.19287109375000,0
358,419344512,-0.872983,0.157553,0.108955,0.448566,1.00000000000000,-0.00005924794823,-0.00009688828140,0.00007841549814,0.02749150991440,-0.01451975107193,0.07637149095535,3.30028843879700,-1.74369418621063,9.16428279876709,-0.81475037336349,-1.33236277103424,1.07833361625671,-0.82275390625000,-0.29199218750000,-1.19287109375000,0
